Timestamp_ms,AX,AY,AZ,GX,GY,GZ,PITCH,ROLL
1733510155215,-0.769,0.005,0.489,-0.307,0.467,-0.045,57.307,0.18
1733510155234,-0.769,0.005,0.489,-0.307,0.467,-0.045,57.319,0.18
1733510155235,-0.769,0.005,0.489,-0.307,0.467,-0.045,57.319,0.185
1733510155237,-0.767,0.005,0.489,-0.307,0.467,-0.045,57.319,0.185
1733510155237,-0.767,0.004,0.489,-0.307,0.467,-0.045,57.319,0.185
1733510155238,-0.767,0.004,0.488,-0.307,0.467,-0.045,57.319,0.185
1733510155240,-0.767,0.004,0.488,-0.031,0.467,-0.045,57.319,0.185
1733510155240,-0.767,0.004,0.488,-0.031,-0.109,-0.045,57.319,0.185
1733510155240,-0.767,0.004,0.488,-0.031,-0.109,0.047,57.319,0.185
1733510155259,-0.767,0.004,0.488,-0.031,-0.109,0.047,57.33,0.185
1733510155259,-0.767,0.004,0.488,-0.031,-0.109,0.047,57.33,0.199
1733510155263,-0.766,0.004,0.488,-0.031,-0.109,0.047,57.33,0.199
1733510155264,-0.766,0.004,0.488,-0.031,-0.109,0.047,57.33,0.199
1733510155264,-0.766,0.004,0.492,-0.031,-0.109,0.047,57.33,0.199
1733510155267,-0.766,0.004,0.492,0.182,-0.109,0.047,57.33,0.199
1733510155268,-0.766,0.004,0.492,0.182,-0.417,0.047,57.33,0.199
1733510155268,-0.766,0.004,0.492,0.182,-0.417,0.047,57.33,0.199
1733510155284,-0.766,0.004,0.492,0.182,-0.417,0.047,57.327,0.199
1733510155285,-0.766,0.004,0.492,0.182,-0.417,0.047,57.327,0.215
1733510155288,-0.765,0.004,0.492,0.182,-0.417,0.047,57.327,0.215
1733510155289,-0.765,0.004,0.492,0.182,-0.417,0.047,57.327,0.215
1733510155289,-0.765,0.004,0.493,0.182,-0.417,0.047,57.327,0.215
1733510155289,-0.765,0.004,0.493,-0.032,-0.417,0.047,57.327,0.215
1733510155290,-0.765,0.004,0.493,-0.032,0.025,0.047,57.327,0.215
1733510155290,-0.765,0.004,0.493,-0.032,0.025,-0.152,57.327,0.215
1733510155310,-0.765,0.004,0.493,-0.032,0.025,-0.152,57.327,0.215
1733510155311,-0.765,0.004,0.493,-0.032,0.025,-0.152,57.327,0.214
1733510155314,-0.768,0.004,0.493,-0.032,0.025,-0.152,57.327,0.214
1733510155315,-0.768,0.001,0.493,-0.032,0.025,-0.152,57.327,0.214
1733510155315,-0.768,0.001,0.492,-0.032,0.025,-0.152,57.327,0.214
1733510155316,-0.768,0.001,0.492,-0.184,0.025,-0.152,57.327,0.214
1733510155316,-0.768,0.001,0.492,-0.184,0.33,-0.152,57.327,0.214
1733510155316,-0.768,0.001,0.492,-0.184,0.33,-0.075,57.327,0.214
1733510155338,-0.768,0.001,0.492,-0.184,0.33,-0.075,57.345,0.214
1733510155338,-0.768,0.001,0.492,-0.184,0.33,-0.075,57.345,0.202
1733510155340,-0.767,0.001,0.492,-0.184,0.33,-0.075,57.345,0.202
1733510155341,-0.767,0.002,0.492,-0.184,0.33,-0.075,57.345,0.202
1733510155341,-0.767,0.002,0.489,-0.184,0.33,-0.075,57.345,0.202
1733510155341,-0.767,0.002,0.489,-0.032,0.33,-0.075,57.345,0.202
1733510155341,-0.767,0.002,0.489,-0.032,-0.036,-0.075,57.345,0.202
1733510155341,-0.767,0.002,0.489,-0.032,-0.036,0.062,57.345,0.202
1733510155362,-0.767,0.002,0.489,-0.032,-0.036,0.062,57.319,0.202
1733510155363,-0.767,0.002,0.489,-0.032,-0.036,0.062,57.319,0.211
1733510155366,-0.766,0.002,0.489,-0.032,-0.036,0.062,57.319,0.211
1733510155366,-0.766,0.004,0.489,-0.032,-0.036,0.062,57.319,0.211
1733510155367,-0.766,0.004,0.495,-0.032,-0.036,0.062,57.319,0.211
1733510155367,-0.766,0.004,0.495,0.197,-0.036,0.062,57.319,0.211
1733510155367,-0.766,0.004,0.495,0.197,-0.22,0.062,57.319,0.211
1733510155367,-0.766,0.004,0.495,0.197,-0.22,0.138,57.319,0.211
1733510155385,-0.766,0.004,0.495,0.197,-0.22,0.138,57.298,0.211
1733510155385,-0.766,0.004,0.495,0.197,-0.22,0.138,57.298,0.224
1733510155388,-0.77,0.004,0.495,0.197,-0.22,0.138,57.298,0.224
1733510155388,-0.77,0.003,0.495,0.197,-0.22,0.138,57.298,0.224
1733510155390,-0.77,0.003,0.497,0.197,-0.22,0.138,57.298,0.224
1733510155390,-0.77,0.003,0.497,-0.183,-0.22,0.138,57.298,0.224
1733510155390,-0.77,0.003,0.497,-0.183,0.36,0.138,57.298,0.224
1733510155390,-0.77,0.003,0.497,-0.183,0.36,-0.227,57.298,0.224
1733510155410,-0.77,0.003,0.497,-0.183,0.36,-0.227,57.316,0.224
1733510155410,-0.77,0.003,0.497,-0.183,0.36,-0.227,57.316,0.208
1733510155413,-0.768,0.003,0.497,-0.183,0.36,-0.227,57.316,0.208
1733510155413,-0.768,0.003,0.497,-0.183,0.36,-0.227,57.316,0.208
1733510155413,-0.768,0.003,0.492,-0.183,0.36,-0.227,57.316,0.208
1733510155428,-0.768,0.003,0.492,-0.018,0.36,-0.227,57.316,0.208
1733510155428,-0.768,0.003,0.492,-0.018,-0.047,-0.227,57.316,0.208
1733510155429,-0.768,0.003,0.492,-0.018,-0.047,-0.061,57.316,0.208
1733510155434,-0.768,0.003,0.492,-0.018,-0.047,-0.061,57.326,0.208
1733510155435,-0.768,0.003,0.492,-0.018,-0.047,-0.061,57.326,0.208
1733510155439,-0.768,0.003,0.492,-0.018,-0.047,-0.061,57.326,0.208
1733510155441,-0.768,0.003,0.492,-0.018,-0.047,-0.061,57.326,0.208
1733510155441,-0.768,0.003,0.493,-0.018,-0.047,-0.061,57.326,0.208
1733510155441,-0.768,0.003,0.493,0.197,-0.047,-0.061,57.326,0.208
1733510155441,-0.768,0.003,0.493,0.197,-0.342,-0.061,57.326,0.208
1733510155442,-0.768,0.003,0.493,0.197,-0.342,0.245,57.326,0.208
1733510155458,-0.768,0.003,0.493,0.197,-0.342,0.245,57.308,0.208
1733510155459,-0.768,0.003,0.493,0.197,-0.342,0.245,57.308,0.208
1733510155462,-0.768,0.003,0.493,0.197,-0.342,0.245,57.308,0.208
1733510155463,-0.768,0.004,0.493,0.197,-0.342,0.245,57.308,0.208
1733510155463,-0.768,0.004,0.493,0.197,-0.342,0.245,57.308,0.208
1733510155463,-0.768,0.004,0.493,-0.23,-0.342,0.245,57.308,0.208
1733510155463,-0.768,0.004,0.493,-0.23,0.177,0.245,57.308,0.208
1733510155464,-0.768,0.004,0.493,-0.23,0.177,0.062,57.308,0.208
1733510155483,-0.768,0.004,0.493,-0.23,0.177,0.062,57.316,0.208
1733510155484,-0.768,0.004,0.493,-0.23,0.177,0.062,57.316,0.199
1733510155488,-0.767,0.004,0.493,-0.23,0.177,0.062,57.316,0.199
1733510155489,-0.767,0.002,0.493,-0.23,0.177,0.062,57.316,0.199
1733510155489,-0.767,0.002,0.49,-0.23,0.177,0.062,57.316,0.199
1733510155490,-0.767,0.002,0.49,-0.184,0.177,0.062,57.316,0.199
1733510155490,-0.767,0.002,0.49,-0.184,0.345,0.062,57.316,0.199
1733510155490,-0.767,0.002,0.49,-0.184,0.345,0.093,57.316,0.199
1733510155510,-0.767,0.002,0.49,-0.184,0.345,0.093,57.316,0.199
1733510155511,-0.767,0.002,0.49,-0.184,0.345,0.093,57.316,0.191
1733510155512,-0.767,0.002,0.49,-0.184,0.345,0.093,57.316,0.191
1733510155513,-0.767,0.003,0.49,-0.184,0.345,0.093,57.316,0.191
1733510155514,-0.767,0.003,0.49,-0.184,0.345,0.093,57.316,0.191
1733510155515,-0.767,0.003,0.49,0.029,0.345,0.093,57.316,0.191
1733510155515,-0.767,0.003,0.49,0.029,-0.357,0.093,57.316,0.191
1733510155515,-0.767,0.003,0.49,0.029,-0.357,0.077,57.316,0.191
1733510155536,-0.767,0.003,0.49,0.029,-0.357,0.077,57.299,0.191
1733510155536,-0.767,0.003,0.49,0.029,-0.357,0.077,57.299,0.204
1733510155538,-0.765,0.003,0.49,0.029,-0.357,0.077,57.299,0.204
1733510155538,-0.765,0.004,0.49,0.029,-0.357,0.077,57.299,0.204
1733510155539,-0.765,0.004,0.495,0.029,-0.357,0.077,57.299,0.204
1733510155539,-0.765,0.004,0.495,0.06,-0.357,0.077,57.299,0.204
1733510155539,-0.765,0.004,0.495,0.06,-0.07,0.077,57.299,0.204
1733510155539,-0.765,0.004,0.495,0.06,-0.07,-0.044,57.299,0.204
1733510155560,-0.765,0.004,0.495,0.06,-0.07,-0.044,57.308,0.204
1733510155560,-0.765,0.004,0.495,0.06,-0.07,-0.044,57.308,0.198
1733510155564,-0.769,0.004,0.495,0.06,-0.07,-0.044,57.308,0.198
1733510155564,-0.769,0.002,0.495,0.06,-0.07,-0.044,57.308,0.198
1733510155564,-0.769,0.002,0.49,0.06,-0.07,-0.044,57.308,0.198
1733510155564,-0.769,0.002,0.49,-0.231,-0.07,-0.044,57.308,0.198
1733510155564,-0.769,0.002,0.49,-0.231,0.466,-0.044,57.308,0.198
1733510155565,-0.769,0.002,0.49,-0.231,0.466,-0.09,57.308,0.198
1733510155584,-0.769,0.002,0.49,-0.231,0.466,-0.09,57.329,0.198
1733510155585,-0.769,0.002,0.49,-0.231,0.466,-0.09,57.329,0.173
1733510155588,-0.769,0.002,0.49,-0.231,0.466,-0.09,57.329,0.173
1733510155589,-0.769,0.001,0.49,-0.231,0.466,-0.09,57.329,0.173
1733510155589,-0.769,0.001,0.492,-0.231,0.466,-0.09,57.329,0.173
1733510155589,-0.769,0.001,0.492,-0.017,0.466,-0.09,57.329,0.173
1733510155590,-0.769,0.001,0.492,-0.017,0.055,-0.09,57.329,0.173
1733510155590,-0.769,0.001,0.492,-0.017,0.055,0.032,57.329,0.173
1733510155610,-0.769,0.001,0.492,-0.017,0.055,0.032,57.323,0.173
1733510155610,-0.769,0.001,0.492,-0.017,0.055,0.032,57.323,0.181
1733510155618,-0.768,0.001,0.492,-0.017,0.055,0.032,57.323,0.181
1733510155619,-0.768,0.004,0.492,-0.017,0.055,0.032,57.323,0.181
1733510155619,-0.768,0.004,0.494,-0.017,0.055,0.032,57.323,0.181
1733510155619,-0.768,0.004,0.494,0.228,0.055,0.032,57.323,0.181
1733510155620,-0.768,0.004,0.494,0.228,-0.464,0.032,57.323,0.181
1733510155620,-0.768,0.004,0.494,0.228,-0.464,0.108,57.323,0.181
1733510155635,-0.768,0.004,0.494,0.228,-0.464,0.108,57.302,0.181
1733510155636,-0.768,0.004,0.494,0.228,-0.464,0.108,57.302,0.192
1733510155638,-0.768,0.004,0.494,0.228,-0.464,0.108,57.302,0.192
1733510155638,-0.768,0.007,0.494,0.228,-0.464,0.108,57.302,0.192
1733510155639,-0.768,0.007,0.494,0.228,-0.464,0.108,57.302,0.192
1733510155639,-0.768,0.007,0.494,-0.139,-0.464,0.108,57.302,0.192
1733510155639,-0.768,0.007,0.494,-0.139,0.162,0.108,57.302,0.192
1733510155640,-0.768,0.007,0.494,-0.139,0.162,0.016,57.302,0.192
1733510155657,-0.768,0.007,0.494,-0.139,0.162,0.016,57.331,0.192
1733510155658,-0.768,0.007,0.494,-0.139,0.162,0.016,57.331,0.184
1733510155662,-0.769,0.007,0.494,-0.139,0.162,0.016,57.331,0.184
1733510155663,-0.769,-0.001,0.494,-0.139,0.162,0.016,57.331,0.184
1733510155664,-0.769,-0.001,0.487,-0.139,0.162,0.016,57.331,0.184
1733510155664,-0.769,-0.001,0.487,-0.016,0.162,0.016,57.331,0.184
1733510155664,-0.769,-0.001,0.487,-0.016,0.452,0.016,57.331,0.184
1733510155665,-0.769,-0.001,0.487,-0.016,0.452,-0.167,57.331,0.184
1733510155686,-0.769,-0.001,0.487,-0.016,0.452,-0.167,57.363,0.184
1733510155686,-0.769,-0.001,0.487,-0.016,0.452,-0.167,57.363,0.175
1733510155689,-0.77,-0.001,0.487,-0.016,0.452,-0.167,57.363,0.175
1733510155690,-0.77,0.003,0.487,-0.016,0.452,-0.167,57.363,0.175
1733510155691,-0.77,0.003,0.493,-0.016,0.452,-0.167,57.363,0.175
1733510155691,-0.77,0.003,0.493,0.06,0.452,-0.167,57.363,0.175
1733510155691,-0.77,0.003,0.493,0.06,-0.174,-0.167,57.363,0.175
1733510155691,-0.77,0.003,0.493,0.06,-0.174,-0.014,57.363,0.175
1733510155709,-0.77,0.003,0.493,0.06,-0.174,-0.014,57.337,0.175
1733510155709,-0.77,0.003,0.493,0.06,-0.174,-0.014,57.337,0.19
1733510155719,-0.768,0.003,0.493,0.06,-0.174,-0.014,57.337,0.19
1733510155720,-0.768,0.005,0.493,0.06,-0.174,-0.014,57.337,0.19
1733510155721,-0.768,0.005,0.498,0.06,-0.174,-0.014,57.337,0.19
1733510155721,-0.768,0.005,0.498,-0.078,-0.174,-0.014,57.337,0.19
1733510155722,-0.768,0.005,0.498,-0.078,-0.128,-0.014,57.337,0.19
1733510155722,-0.768,0.005,0.498,-0.078,-0.128,-0.06,57.337,0.19
1733510155734,-0.768,0.005,0.498,-0.078,-0.128,-0.06,57.31,0.19
1733510155735,-0.768,0.005,0.498,-0.078,-0.128,-0.06,57.31,0.19
1733510155738,-0.767,0.005,0.498,-0.078,-0.128,-0.06,57.31,0.19
1733510155762,-0.769,0.001,0.496,-0.245,0.223,0.016,57.319,0.178
1733510155763,-0.769,0.001,0.49,-0.245,0.223,0.016,57.319,0.178
1733510155764,-0.769,0.001,0.49,-0.215,0.223,0.016,57.319,0.178
1733510155764,-0.769,0.001,0.49,-0.215,0.345,0.016,57.319,0.178
1733510155765,-0.769,0.001,0.49,-0.215,0.345,-0.289,57.319,0.178
1733510155784,-0.769,0.001,0.49,-0.215,0.345,-0.289,57.332,0.178
1733510155785,-0.769,0.001,0.49,-0.215,0.345,-0.289,57.332,0.153
1733510155788,-0.769,0.001,0.49,-0.215,0.345,-0.289,57.332,0.153
1733510155788,-0.769,0.002,0.49,-0.215,0.345,-0.289,57.332,0.153
1733510155789,-0.769,0.002,0.492,-0.215,0.345,-0.289,57.332,0.153
1733510155789,-0.769,0.002,0.492,0.319,0.345,-0.289,57.332,0.153
1733510155789,-0.769,0.002,0.492,0.319,-0.326,-0.289,57.332,0.153
1733510155790,-0.769,0.002,0.492,0.319,-0.326,0.062,57.332,0.153
1733510155808,-0.769,0.002,0.492,0.319,-0.326,0.062,57.313,0.153
1733510155808,-0.769,0.002,0.492,0.319,-0.326,0.062,57.313,0.173
1733510155812,-0.767,0.002,0.492,0.319,-0.326,0.062,57.313,0.173
1733510155813,-0.767,0.005,0.492,0.319,-0.326,0.062,57.313,0.173
1733510155814,-0.767,0.005,0.496,0.319,-0.326,0.062,57.313,0.173
1733510155815,-0.767,0.005,0.496,0.167,-0.326,0.062,57.313,0.173
1733510155815,-0.767,0.005,0.496,0.167,-0.601,0.062,57.313,0.173
1733510155816,-0.767,0.005,0.496,0.167,-0.601,0.169,57.313,0.173
1733510155834,-0.767,0.005,0.496,0.167,-0.601,0.169,57.301,0.173
1733510155835,-0.767,0.005,0.496,0.167,-0.601,0.169,57.301,0.186
1733510155837,-0.768,0.005,0.496,0.167,-0.601,0.169,57.301,0.186
1733510155838,-0.768,0.001,0.496,0.167,-0.601,0.169,57.301,0.186
1733510155838,-0.768,0.001,0.494,0.167,-0.601,0.169,57.301,0.186
1733510155842,-0.768,0.001,0.494,-0.368,-0.601,0.169,57.301,0.186
1733510155842,-0.768,0.001,0.494,-0.368,0.681,0.169,57.301,0.186
1733510155842,-0.768,0.001,0.494,-0.368,0.681,-0.029,57.301,0.186
1733510155863,-0.768,0.001,0.494,-0.368,0.681,-0.029,57.343,0.186
1733510155864,-0.768,0.001,0.494,-0.368,0.681,-0.029,57.343,0.163
1733510155864,-0.77,0.001,0.494,-0.368,0.681,-0.029,57.343,0.163
1733510155865,-0.77,0.001,0.494,-0.368,0.681,-0.029,57.343,0.163
1733510155865,-0.77,0.001,0.485,-0.368,0.681,-0.029,57.343,0.163
1733510155866,-0.77,0.001,0.485,-0.23,0.681,-0.029,57.343,0.163
1733510155866,-0.77,0.001,0.485,-0.23,0.483,-0.029,57.343,0.163
1733510155866,-0.77,0.001,0.485,-0.23,0.483,-0.014,57.343,0.163
1733510155884,-0.77,0.001,0.485,-0.23,0.483,-0.014,57.362,0.163
1733510155885,-0.77,0.001,0.485,-0.23,0.483,-0.014,57.362,0.158
1733510155887,-0.77,0.001,0.485,-0.23,0.483,-0.014,57.362,0.158
1733510155888,-0.77,0.003,0.485,-0.23,0.483,-0.014,57.362,0.158
1733510155888,-0.77,0.003,0.496,-0.23,0.483,-0.014,57.362,0.158
1733510155888,-0.77,0.003,0.496,0.653,0.483,-0.014,57.362,0.158
1733510155888,-0.77,0.003,0.496,0.653,-0.917,-0.014,57.362,0.158
1733510155889,-0.77,0.003,0.496,0.653,-0.917,0.245,57.362,0.158
1733510155910,-0.77,0.003,0.496,0.653,-0.917,0.245,57.296,0.158
1733510155912,-0.77,0.003,0.496,0.653,-0.917,0.245,57.296,0.182
1733510155919,-0.765,0.003,0.496,0.653,-0.917,0.245,57.296,0.182
1733510155919,-0.765,0.005,0.496,0.653,-0.917,0.245,57.296,0.182
1733510155921,-0.765,0.005,0.499,0.653,-0.917,0.245,57.296,0.182
1733510155921,-0.765,0.005,0.499,0.091,-0.917,0.245,57.296,0.182
1733510155921,-0.765,0.005,0.499,0.091,-0.149,0.245,57.296,0.182
1733510155922,-0.765,0.005,0.499,0.091,-0.149,0.003,57.296,0.182
1733510155940,-0.765,0.005,0.499,0.091,-0.149,0.003,57.262,0.182
1733510155941,-0.765,0.005,0.499,0.091,-0.149,0.003,57.262,0.184
1733510155941,-0.767,0.005,0.499,0.091,-0.149,0.003,57.262,0.184
1733510155941,-0.767,0.005,0.499,0.091,-0.149,0.003,57.262,0.184
1733510155941,-0.767,0.005,0.494,0.091,-0.149,0.003,57.262,0.184
1733510155942,-0.767,0.005,0.494,-0.597,-0.149,0.003,57.262,0.184
1733510155942,-0.767,0.005,0.494,-0.597,0.91,0.003,57.262,0.184
1733510155942,-0.767,0.005,0.494,-0.597,0.91,-0.197,57.262,0.184
1733510155958,-0.767,0.005,0.494,-0.597,0.91,-0.197,57.312,0.184
1733510155959,-0.767,0.005,0.494,-0.597,0.91,-0.197,57.312,0.17
1733510155967,-0.769,0.005,0.494,-0.597,0.91,-0.197,57.312,0.17
1733510155990,-0.765,0.006,0.488,-0.322,0.284,-0.091,57.31,0.181
1733510155991,-0.765,0.006,0.494,-0.322,0.284,-0.091,57.31,0.181
1733510155992,-0.765,0.006,0.494,0.503,0.284,-0.091,57.31,0.181
1733510155992,-0.765,0.006,0.494,0.503,-0.998,-0.091,57.31,0.181
1733510155993,-0.765,0.006,0.494,0.503,-0.998,0.2,57.31,0.181
1733510156009,-0.765,0.006,0.494,0.503,-0.998,0.2,57.267,0.181
1733510156010,-0.765,0.006,0.494,0.503,-0.998,0.2,57.267,0.22
1733510156012,-0.768,0.006,0.494,0.503,-0.998,0.2,57.267,0.22
1733510156013,-0.768,0.008,0.494,0.503,-0.998,0.2,57.267,0.22
1733510156014,-0.768,0.008,0.498,0.503,-0.998,0.2,57.267,0.22
1733510156014,-0.768,0.008,0.498,0.09,-0.998,0.2,57.267,0.22
1733510156015,-0.768,0.008,0.498,0.09,-0.097,0.2,57.267,0.22
1733510156015,-0.768,0.008,0.498,0.09,-0.097,0.123,57.267,0.22
1733510156036,-0.768,0.008,0.498,0.09,-0.097,0.123,57.274,0.22
1733510156036,-0.768,0.008,0.498,0.09,-0.097,0.123,57.274,0.212
1733510156040,-0.769,0.008,0.498,0.09,-0.097,0.123,57.274,0.212
1733510156040,-0.769,0.001,0.498,0.09,-0.097,0.123,57.274,0.212
1733510156041,-0.769,0.001,0.493,0.09,-0.097,0.123,57.274,0.212
1733510156041,-0.769,0.001,0.493,-0.461,-0.097,0.123,57.274,0.212
1733510156042,-0.769,0.001,0.493,-0.461,1.033,0.123,57.274,0.212
1733510156042,-0.769,0.001,0.493,-0.461,1.033,-0.153,57.274,0.212
1733510156065,-0.769,0.001,0.493,-0.461,1.033,-0.153,57.324,0.212
1733510156065,-0.769,0.001,0.493,-0.461,1.033,-0.153,57.324,0.191
1733510156066,-0.768,0.001,0.493,-0.461,1.033,-0.153,57.324,0.191
1733510156066,-0.768,0.004,0.493,-0.461,1.033,-0.153,57.324,0.191
1733510156066,-0.768,0.004,0.487,-0.461,1.033,-0.153,57.324,0.191
1733510156066,-0.768,0.004,0.487,0.209,1.033,-0.153,57.324,0.191
1733510156067,-0.768,0.004,0.487,0.209,-0.368,-0.153,57.324,0.191
1733510156067,-0.768,0.004,0.487,0.209,-0.368,0.106,57.324,0.191
1733510156095,-0.768,0.004,0.487,0.209,-0.368,0.106,57.311,0.191
1733510156095,-0.768,0.004,0.487,0.209,-0.368,0.106,57.311,0.214
1733510156096,-0.766,0.004,0.487,0.209,-0.368,0.106,57.311,0.214
1733510156096,-0.766,0.005,0.487,0.209,-0.368,0.106,57.311,0.214
1733510156096,-0.766,0.005,0.495,0.209,-0.368,0.106,57.311,0.214
1733510156097,-0.766,0.005,0.495,0.472,-0.368,0.106,57.311,0.214
1733510156097,-0.766,0.005,0.495,0.472,-0.907,0.106,57.311,0.214
1733510156097,-0.766,0.005,0.495,0.472,-0.907,0.184,57.311,0.214
1733510156109,-0.766,0.005,0.495,0.472,-0.907,0.184,57.258,0.214
1733510156109,-0.766,0.005,0.495,0.472,-0.907,0.184,57.258,0.23
1733510156114,-0.766,0.005,0.495,0.472,-0.907,0.184,57.258,0.23
1733510156115,-0.766,0.005,0.495,0.472,-0.907,0.184,57.258,0.23
1733510156115,-0.766,0.005,0.5,0.472,-0.907,0.184,57.258,0.23
1733510156116,-0.766,0.005,0.5,-0.261,-0.907,0.184,57.258,0.23
1733510156116,-0.766,0.005,0.5,-0.261,0.422,0.184,57.258,0.23
1733510156116,-0.766,0.005,0.5,-0.261,0.422,-0.136,57.258,0.23
1733510156136,-0.766,0.005,0.5,-0.261,0.422,-0.136,57.277,0.23
1733510156137,-0.766,0.005,0.5,-0.261,0.422,-0.136,57.277,0.218
1733510156138,-0.768,0.005,0.5,-0.261,0.422,-0.136,57.277,0.218
1733510156138,-0.768,0.001,0.5,-0.261,0.422,-0.136,57.277,0.218
1733510156138,-0.768,0.001,0.488,-0.261,0.422,-0.136,57.277,0.218
1733510156139,-0.768,0.001,0.488,-0.597,0.422,-0.136,57.277,0.218
1733510156141,-0.768,0.001,0.488,-0.597,1.017,-0.136,57.277,0.218
1733510156142,-0.768,0.001,0.488,-0.597,1.017,-0.213,57.277,0.218
1733510156160,-0.768,0.001,0.488,-0.597,1.017,-0.213,57.321,0.218
1733510156161,-0.768,0.001,0.488,-0.597,1.017,-0.213,57.321,0.201
1733510156162,-0.769,0.001,0.488,-0.597,1.017,-0.213,57.321,0.201
1733510156163,-0.769,-0.001,0.488,-0.597,1.017,-0.213,57.321,0.201
1733510156164,-0.769,-0.001,0.488,-0.597,1.017,-0.213,57.321,0.201
1733510156164,-0.769,-0.001,0.488,0.319,1.017,-0.213,57.321,0.201
1733510156164,-0.769,-0.001,0.488,0.319,-0.555,-0.213,57.321,0.201
1733510156165,-0.769,-0.001,0.488,0.319,-0.555,0.184,57.321,0.201
1733510156184,-0.769,-0.001,0.488,0.319,-0.555,0.184,57.269,0.201
1733510156184,-0.769,-0.001,0.488,0.319,-0.555,0.184,57.269,0.217
1733510156190,-0.767,-0.001,0.488,0.319,-0.555,0.184,57.269,0.217
1733510156191,-0.767,0.006,0.488,0.319,-0.555,0.184,57.269,0.217
1733510156192,-0.767,0.006,0.498,0.319,-0.555,0.184,57.269,0.217
1733510156192,-0.767,0.006,0.498,0.093,-0.555,0.184,57.269,0.217
1733510156192,-0.767,0.006,0.498,0.093,-0.378,0.184,57.269,0.217
1733510156193,-0.767,0.006,0.498,0.093,-0.378,0.094,57.269,0.217
1733510156219,-0.767,0.006,0.498,0.093,-0.378,0.094,57.252,0.217
1733510156219,-0.767,0.006,0.498,0.093,-0.378,0.094,57.252,0.236
1733510156220,-0.767,0.006,0.498,0.093,-0.378,0.094,57.252,0.236
1733510156220,-0.767,0.003,0.498,0.093,-0.378,0.094,57.252,0.236
1733510156220,-0.767,0.003,0.495,0.093,-0.378,0.094,57.252,0.236
1733510156220,-0.767,0.003,0.495,-0.428,-0.378,0.094,57.252,0.236
1733510156220,-0.767,0.003,0.495,-0.428,0.969,0.094,57.252,0.236
1733510156220,-0.767,0.003,0.495,-0.428,0.969,-0.273,57.252,0.236
1733510156238,-0.767,0.003,0.495,-0.428,0.969,-0.273,57.297,0.236
1733510156238,-0.767,0.003,0.495,-0.428,0.969,-0.273,57.297,0.199
1733510156239,-0.771,0.003,0.495,-0.428,0.969,-0.273,57.297,0.199
1733510156263,-0.77,0.004,0.487,-0.2,0.177,-0.029,57.332,0.193
1733510156263,-0.77,0.004,0.489,-0.2,0.177,-0.029,57.332,0.193
1733510156263,-0.77,0.004,0.489,0.396,0.177,-0.029,57.332,0.193
1733510156263,-0.77,0.004,0.489,0.396,-1.029,-0.029,57.332,0.193
1733510156264,-0.77,0.004,0.489,0.396,-1.029,0.245,57.332,0.193
1733510156284,-0.77,0.004,0.489,0.396,-1.029,0.245,57.287,0.193
1733510156285,-0.77,0.004,0.489,0.396,-1.029,0.245,57.287,0.21
1733510156287,-0.766,0.004,0.489,0.396,-1.029,0.245,57.287,0.21
1733510156288,-0.766,0.003,0.489,0.396,-1.029,0.245,57.287,0.21
1733510156288,-0.766,0.003,0.494,0.396,-1.029,0.245,57.287,0.21
1733510156289,-0.766,0.003,0.494,0.09,-1.029,0.245,57.287,0.21
1733510156289,-0.766,0.003,0.494,0.09,-0.22,0.245,57.287,0.21
1733510156289,-0.766,0.003,0.494,0.09,-0.22,0.047,57.287,0.21
1733510156309,-0.766,0.003,0.494,0.09,-0.22,0.047,57.271,0.21
1733510156309,-0.766,0.003,0.494,0.09,-0.22,0.047,57.271,0.204
1733510156313,-0.768,0.003,0.494,0.09,-0.22,0.047,57.271,0.204
1733510156313,-0.768,0.003,0.494,0.09,-0.22,0.047,57.271,0.204
1733510156313,-0.768,0.003,0.496,0.09,-0.22,0.047,57.271,0.204
1733510156314,-0.768,0.003,0.496,-0.505,-0.22,0.047,57.271,0.204
1733510156314,-0.768,0.003,0.496,-0.505,0.925,0.047,57.271,0.204
1733510156314,-0.768,0.003,0.496,-0.505,0.925,-0.091,57.271,0.204
1733510156344,-0.768,0.003,0.496,-0.505,0.925,-0.091,57.313,0.204
1733510156344,-0.768,0.003,0.496,-0.505,0.925,-0.091,57.313,0.183
1733510156345,-0.769,0.003,0.496,-0.505,0.925,-0.091,57.313,0.183
1733510156363,-0.768,0.003,0.486,-0.139,0.055,0.047,57.307,0.177
1733510156364,-0.768,0.003,0.494,-0.139,0.055,0.047,57.307,0.177
1733510156365,-0.768,0.003,0.494,0.38,0.055,0.047,57.307,0.177
1733510156365,-0.768,0.003,0.494,0.38,-0.861,0.047,57.307,0.177
1733510156365,-0.768,0.003,0.494,0.38,-0.861,0.138,57.307,0.177
1733510156389,-0.768,0.003,0.494,0.38,-0.861,0.138,57.267,0.177
1733510156390,-0.768,0.003,0.494,0.38,-0.861,0.138,57.267,0.189
1733510156392,-0.766,0.003,0.494,0.38,-0.861,0.138,57.267,0.189
1733510156392,-0.766,0.003,0.494,0.38,-0.861,0.138,57.267,0.189
1733510156393,-0.766,0.003,0.496,0.38,-0.861,0.138,57.267,0.189
1733510156393,-0.766,0.003,0.496,-0.169,-0.861,0.138,57.267,0.189
1733510156393,-0.766,0.003,0.496,-0.169,0.559,0.138,57.267,0.189
1733510156394,-0.766,0.003,0.496,-0.169,0.559,-0.167,57.267,0.189
1733510156409,-0.766,0.003,0.496,-0.169,0.559,-0.167,57.274,0.189
1733510156410,-0.766,0.003,0.496,-0.169,0.559,-0.167,57.274,0.176
1733510156412,-0.767,0.003,0.496,-0.169,0.559,-0.167,57.274,0.176
1733510156412,-0.767,0.003,0.496,-0.169,0.559,-0.167,57.274,0.176
1733510156414,-0.767,0.003,0.49,-0.169,0.559,-0.167,57.274,0.176
1733510156414,-0.767,0.003,0.49,-0.184,0.559,-0.167,57.274,0.176
1733510156415,-0.767,0.003,0.49,-0.184,0.559,-0.167,57.274,0.176
1733510156415,-0.767,0.003,0.49,-0.184,0.559,-0.091,57.274,0.176
1733510156434,-0.767,0.003,0.49,-0.184,0.559,-0.091,57.314,0.176
1733510156435,-0.767,0.003,0.49,-0.184,0.559,-0.091,57.314,0.167
1733510156438,-0.768,0.003,0.49,-0.184,0.559,-0.091,57.314,0.167
1733510156438,-0.768,0.003,0.49,-0.184,0.559,-0.091,57.314,0.167
1733510156438,-0.768,0.003,0.487,-0.184,0.559,-0.091,57.314,0.167
1733510156438,-0.768,0.003,0.487,0.213,0.559,-0.091,57.314,0.167
1733510156438,-0.768,0.003,0.487,0.213,-0.25,-0.091,57.314,0.167
1733510156442,-0.768,0.003,0.487,0.213,-0.25,0.032,57.314,0.167
1733510156459,-0.768,0.003,0.487,0.213,-0.25,0.032,57.291,0.167
1733510156460,-0.768,0.003,0.487,0.213,-0.25,0.032,57.291,0.181
1733510156461,-0.767,0.003,0.487,0.213,-0.25,0.032,57.291,0.181
1733510156463,-0.767,0.003,0.487,0.213,-0.25,0.032,57.291,0.181
1733510156464,-0.767,0.003,0.494,0.213,-0.25,0.032,57.291,0.181
1733510156464,-0.767,0.003,0.494,0.335,-0.25,0.032,57.291,0.181
1733510156464,-0.767,0.003,0.494,0.335,-0.571,0.032,57.291,0.181
1733510156465,-0.767,0.003,0.494,0.335,-0.571,0.184,57.291,0.181
1733510156484,-0.767,0.003,0.494,0.335,-0.571,0.184,57.264,0.181
1733510156485,-0.767,0.003,0.494,0.335,-0.571,0.184,57.264,0.188
1733510156489,-0.765,0.003,0.494,0.335,-0.571,0.184,57.264,0.188
1733510156490,-0.765,0.006,0.494,0.335,-0.571,0.184,57.264,0.188
1733510156491,-0.765,0.006,0.493,0.335,-0.571,0.184,57.264,0.188
1733510156491,-0.765,0.006,0.493,-0.23,-0.571,0.184,57.264,0.188
1733510156492,-0.765,0.006,0.493,-0.23,0.315,0.184,57.264,0.188
1733510156492,-0.765,0.006,0.493,-0.23,0.315,-0.106,57.264,0.188
1733510156509,-0.765,0.006,0.493,-0.23,0.315,-0.106,57.295,0.188
1733510156509,-0.765,0.006,0.493,-0.23,0.315,-0.106,57.295,0.172
1733510156512,-0.769,0.006,0.493,-0.23,0.315,-0.106,57.295,0.172
1733510156513,-0.769,0.001,0.493,-0.23,0.315,-0.106,57.295,0.172
1733510156513,-0.769,0.001,0.488,-0.23,0.315,-0.106,57.295,0.172
1733510156513,-0.769,0.001,0.488,-0.429,0.315,-0.106,57.295,0.172
1733510156515,-0.769,0.001,0.488,-0.429,0.666,-0.106,57.295,0.172
1733510156515,-0.769,0.001,0.488,-0.429,0.666,-0.167,57.295,0.172
1733510156535,-0.769,0.001,0.488,-0.429,0.666,-0.167,57.308,0.172
1733510156536,-0.769,0.001,0.488,-0.429,0.666,-0.167,57.308,0.16
1733510156540,-0.768,0.001,0.488,-0.429,0.666,-0.167,57.308,0.16
1733510156541,-0.768,0.002,0.488,-0.429,0.666,-0.167,57.308,0.16
1733510156541,-0.768,0.002,0.494,-0.429,0.666,-0.167,57.308,0.16
1733510156541,-0.768,0.002,0.494,0.197,0.666,-0.167,57.308,0.16
1733510156541,-0.768,0.002,0.494,0.197,-0.6,-0.167,57.308,0.16
1733510156541,-0.768,0.002,0.494,0.197,-0.6,0.214,57.308,0.16
1733510156558,-0.768,0.002,0.494,0.197,-0.6,0.214,57.288,0.16
1733510156559,-0.768,0.002,0.494,0.197,-0.6,0.214,57.288,0.175
1733510156562,-0.766,0.002,0.494,0.197,-0.6,0.214,57.288,0.175
1733510156563,-0.766,0.004,0.494,0.197,-0.6,0.214,57.288,0.175
1733510156563,-0.766,0.004,0.494,0.197,-0.6,0.214,57.288,0.175
1733510156563,-0.766,0.004,0.494,-0.045,-0.6,0.214,57.288,0.175
1733510156565,-0.766,0.004,0.494,-0.045,-0.161,0.214,57.288,0.175
1733510156565,-0.766,0.004,0.494,-0.045,-0.161,0.064,57.288,0.175
1733510156583,-0.766,0.004,0.494,-0.045,-0.161,0.064,57.286,0.175
1733510156584,-0.766,0.004,0.494,-0.045,-0.161,0.064,57.286,0.164
1733510156600,-0.77,0.004,0.494,-0.045,-0.161,0.064,57.286,0.164
1733510156601,-0.77,0.002,0.494,-0.045,-0.161,0.064,57.286,0.164
1733510156601,-0.77,0.002,0.492,-0.045,-0.161,0.064,57.286,0.164
1733510156601,-0.77,0.002,0.492,-0.352,-0.161,0.064,57.286,0.164
1733510156602,-0.77,0.002,0.492,-0.352,0.651,0.064,57.286,0.164
1733510156602,-0.77,0.002,0.492,-0.352,0.651,-0.197,57.286,0.164
1733510156609,-0.77,0.002,0.492,-0.352,0.651,-0.197,57.321,0.164
1733510156609,-0.77,0.002,0.492,-0.352,0.651,-0.197,57.321,0.16
1733510156612,-0.767,0.002,0.492,-0.352,0.651,-0.197,57.321,0.16
1733510156613,-0.767,0.005,0.492,-0.352,0.651,-0.197,57.321,0.16
1733510156613,-0.767,0.005,0.491,-0.352,0.651,-0.197,57.321,0.16
1733510156613,-0.767,0.005,0.491,-0.078,0.651,-0.197,57.321,0.16
1733510156614,-0.767,0.005,0.491,-0.078,0.071,-0.197,57.321,0.16
1733510156614,-0.767,0.005,0.491,-0.078,0.071,-0.152,57.321,0.16
1733510156635,-0.767,0.005,0.491,-0.078,0.071,-0.152,57.318,0.16
1733510156636,-0.767,0.005,0.491,-0.078,0.071,-0.152,57.318,0.163
1733510156652,-0.767,0.005,0.491,-0.078,0.071,-0.152,57.318,0.163
1733510156653,-0.767,0.003,0.491,-0.078,0.071,-0.152,57.318,0.163
1733510156653,-0.767,0.003,0.494,-0.078,0.071,-0.152,57.318,0.163
1733510156654,-0.767,0.003,0.494,0.151,0.071,-0.152,57.318,0.163
1733510156654,-0.767,0.003,0.494,0.151,-0.647,-0.152,57.318,0.163
1733510156654,-0.767,0.003,0.494,0.151,-0.647,0.2,57.318,0.163
1733510156659,-0.767,0.003,0.494,0.151,-0.647,0.2,57.294,0.163
1733510156659,-0.767,0.003,0.494,0.151,-0.647,0.2,57.294,0.183
1733510156664,-0.768,0.003,0.494,0.151,-0.647,0.2,57.294,0.183
1733510156664,-0.768,0.004,0.494,0.151,-0.647,0.2,57.294,0.183
1733510156665,-0.768,0.004,0.495,0.151,-0.647,0.2,57.294,0.183
1733510156665,-0.768,0.004,0.495,-0.016,-0.647,0.2,57.294,0.183
1733510156665,-0.768,0.004,0.495,-0.016,0.116,0.2,57.294,0.183
1733510156666,-0.768,0.004,0.495,-0.016,0.116,0.016,57.294,0.183
1733510156684,-0.768,0.004,0.495,-0.016,0.116,0.016,57.308,0.183
1733510156684,-0.768,0.004,0.495,-0.016,0.116,0.016,57.308,0.18
1733510156687,-0.769,0.004,0.495,-0.016,0.116,0.016,57.308,0.18
1733510156689,-0.769,0.004,0.495,-0.016,0.116,0.016,57.308,0.18
1733510156689,-0.769,0.004,0.488,-0.016,0.116,0.016,57.308,0.18
1733510156689,-0.769,0.004,0.488,-0.064,0.116,0.016,57.308,0.18
1733510156689,-0.769,0.004,0.488,-0.064,0.377,0.016,57.308,0.18
1733510156690,-0.769,0.004,0.488,-0.064,0.377,0.016,57.308,0.18
1733510156709,-0.769,0.004,0.488,-0.064,0.377,0.016,57.353,0.18
1733510156709,-0.769,0.004,0.488,-0.064,0.377,0.016,57.353,0.184
1733510156714,-0.77,0.004,0.488,-0.064,0.377,0.016,57.353,0.184
1733510156714,-0.77,0.003,0.488,-0.064,0.377,0.016,57.353,0.184
1733510156715,-0.77,0.003,0.489,-0.064,0.377,0.016,57.353,0.184
1733510156715,-0.77,0.003,0.489,0.059,0.377,0.016,57.353,0.184
1733510156715,-0.77,0.003,0.489,0.059,-0.384,0.016,57.353,0.184
1733510156715,-0.77,0.003,0.489,0.059,-0.384,0.002,57.353,0.184
1733510156735,-0.77,0.003,0.489,0.059,-0.384,0.002,57.332,0.184
1733510156736,-0.77,0.003,0.489,0.059,-0.384,0.002,57.332,0.186
1733510156741,-0.764,0.003,0.489,0.059,-0.384,0.002,57.332,0.186
1733510156741,-0.764,0.005,0.489,0.059,-0.384,0.002,57.332,0.186
1733510156741,-0.764,0.005,0.493,0.059,-0.384,0.002,57.332,0.186
1733510156742,-0.764,0.005,0.493,0.045,-0.384,0.002,57.332,0.186
1733510156742,-0.764,0.005,0.493,0.045,-0.281,0.002,57.332,0.186
1733510156742,-0.764,0.005,0.493,0.045,-0.281,0.138,57.332,0.186
1733510156759,-0.764,0.005,0.493,0.045,-0.281,0.138,57.314,0.186
1733510156759,-0.764,0.005,0.493,0.045,-0.281,0.138,57.314,0.188
1733510156763,-0.768,0.005,0.493,0.045,-0.281,0.138,57.314,0.188
1733510156763,-0.768,0.005,0.493,0.045,-0.281,0.138,57.314,0.188
1733510156763,-0.768,0.005,0.492,0.045,-0.281,0.138,57.314,0.188
1733510156763,-0.768,0.005,0.492,-0.078,-0.281,0.138,57.314,0.188
1733510156763,-0.768,0.005,0.492,-0.078,0.59,0.138,57.314,0.188
1733510156764,-0.768,0.005,0.492,-0.078,0.59,-0.106,57.314,0.188
1733510156788,-0.768,0.005,0.492,-0.078,0.59,-0.106,57.349,0.188
1733510156788,-0.768,0.005,0.492,-0.078,0.59,-0.106,57.349,0.182
1733510156792,-0.771,0.005,0.492,-0.078,0.59,-0.106,57.349,0.182
1733510156793,-0.771,0.003,0.492,-0.078,0.59,-0.106,57.349,0.182
1733510156793,-0.771,0.003,0.491,-0.078,0.59,-0.106,57.349,0.182
1733510156793,-0.771,0.003,0.491,-0.123,0.59,-0.106,57.349,0.182
1733510156793,-0.771,0.003,0.491,-0.123,0.208,-0.106,57.349,0.182
1733510156794,-0.771,0.003,0.491,-0.123,0.208,-0.045,57.349,0.182
1733510156809,-0.771,0.003,0.491,-0.123,0.208,-0.045,57.345,0.182
1733510156810,-0.771,0.003,0.491,-0.123,0.208,-0.045,57.345,0.18
1733510156812,-0.767,0.003,0.491,-0.123,0.208,-0.045,57.345,0.18
1733510156813,-0.767,0.005,0.491,-0.123,0.208,-0.045,57.345,0.18
1733510156814,-0.767,0.005,0.495,-0.123,0.208,-0.045,57.345,0.18
1733510156815,-0.767,0.005,0.495,0.014,0.208,-0.045,57.345,0.18
1733510156815,-0.767,0.005,0.495,0.014,-0.51,-0.045,57.345,0.18
1733510156815,-0.767,0.005,0.495,0.014,-0.51,0.108,57.345,0.18
1733510156835,-0.767,0.005,0.495,0.014,-0.51,0.108,57.313,0.18
1733510156836,-0.767,0.005,0.495,0.014,-0.51,0.108,57.313,0.196
1733510156838,-0.766,0.005,0.495,0.014,-0.51,0.108,57.313,0.196
1733510156838,-0.766,0.004,0.495,0.014,-0.51,0.108,57.313,0.196
1733510156846,-0.766,0.004,0.494,0.014,-0.51,0.108,57.313,0.196
1733510156846,-0.766,0.004,0.494,-0.045,-0.51,0.108,57.313,0.196
1733510156847,-0.766,0.004,0.494,-0.045,0.251,0.108,57.313,0.196
1733510156847,-0.766,0.004,0.494,-0.045,0.251,0.001,57.313,0.196
1733510156859,-0.766,0.004,0.494,-0.045,0.251,0.001,57.321,0.196
1733510156860,-0.766,0.004,0.494,-0.045,0.251,0.001,57.321,0.191
1733510156863,-0.769,0.004,0.494,-0.045,0.251,0.001,57.321,0.191
1733510156864,-0.769,0.004,0.494,-0.045,0.251,0.001,57.321,0.191
1733510156864,-0.769,0.004,0.491,-0.045,0.251,0.001,57.321,0.191
1733510156864,-0.769,0.004,0.491,-0.214,0.251,0.001,57.321,0.191
1733510156865,-0.769,0.004,0.491,-0.214,0.361,0.001,57.321,0.191
1733510156865,-0.769,0.004,0.491,-0.214,0.361,-0.045,57.321,0.191
1733510156886,-0.769,0.004,0.491,-0.214,0.361,-0.045,57.341,0.191
1733510156887,-0.769,0.004,0.491,-0.214,0.361,-0.045,57.341,0.187
1733510156888,-0.77,0.004,0.491,-0.214,0.361,-0.045,57.341,0.187
1733510156888,-0.77,0.001,0.491,-0.214,0.361,-0.045,57.341,0.187
1733510156888,-0.77,0.001,0.49,-0.214,0.361,-0.045,57.341,0.187
1733510156888,-0.77,0.001,0.49,0.106,0.361,-0.045,57.341,0.187
1733510156889,-0.77,0.001,0.49,0.106,-0.235,-0.045,57.341,0.187
1733510156889,-0.77,0.001,0.49,0.106,-0.235,0.032,57.341,0.187
1733510156909,-0.77,0.001,0.49,0.106,-0.235,0.032,57.33,0.187
1733510156909,-0.77,0.001,0.49,0.106,-0.235,0.032,57.33,0.193
1733510156913,-0.768,0.001,0.49,0.106,-0.235,0.032,57.33,0.193
1733510156913,-0.768,0.005,0.49,0.106,-0.235,0.032,57.33,0.193
1733510156914,-0.768,0.005,0.496,0.106,-0.235,0.032,57.33,0.193
1733510156914,-0.768,0.005,0.496,0.029,-0.235,0.032,57.33,0.193
1733510156914,-0.768,0.005,0.496,0.029,-0.235,0.032,57.33,0.193
1733510156914,-0.768,0.005,0.496,0.029,-0.235,0.032,57.33,0.193
1733510156934,-0.768,0.005,0.496,0.029,-0.235,0.032,57.315,0.193
1733510156941,-0.768,0.005,0.496,0.029,-0.235,0.032,57.315,0.201
1733510156942,-0.767,0.005,0.496,0.029,-0.235,0.032,57.315,0.201
1733510156942,-0.767,0.005,0.496,0.029,-0.235,0.032,57.315,0.201
1733510156942,-0.767,0.005,0.493,0.029,-0.235,0.032,57.315,0.201
1733510156942,-0.767,0.005,0.493,-0.139,-0.235,0.032,57.315,0.201
1733510156942,-0.767,0.005,0.493,-0.139,0.269,0.032,57.315,0.201
1733510156942,-0.767,0.005,0.493,-0.139,0.269,-0.091,57.315,0.201
1733510156959,-0.767,0.005,0.493,-0.139,0.269,-0.091,57.336,0.201
1733510156960,-0.767,0.005,0.493,-0.139,0.269,-0.091,57.336,0.206
1733510156963,-0.769,0.005,0.493,-0.139,0.269,-0.091,57.336,0.206
1733510156963,-0.769,0.004,0.493,-0.139,0.269,-0.091,57.336,0.206
1733510156964,-0.769,0.004,0.493,-0.139,0.269,-0.091,57.336,0.206
1733510156965,-0.769,0.004,0.493,-0.062,0.269,-0.091,57.336,0.206
1733510156965,-0.769,0.004,0.493,-0.062,0.116,-0.091,57.336,0.206
1733510156965,-0.769,0.004,0.493,-0.062,0.116,-0.06,57.336,0.206
1733510156984,-0.769,0.004,0.493,-0.062,0.116,-0.06,57.344,0.206
1733510156985,-0.769,0.004,0.493,-0.062,0.116,-0.06,57.344,0.207
1733510156993,-0.768,0.004,0.493,-0.062,0.116,-0.06,57.344,0.207
1733510156993,-0.768,0.005,0.493,-0.062,0.116,-0.06,57.344,0.207
1733510156994,-0.768,0.005,0.491,-0.062,0.116,-0.06,57.344,0.207
1733510156994,-0.768,0.005,0.491,0.029,0.116,-0.06,57.344,0.207
1733510156994,-0.768,0.005,0.491,0.029,-0.143,-0.06,57.344,0.207
1733510156994,-0.768,0.005,0.491,0.029,-0.143,0.001,57.344,0.207
1733510157011,-0.768,0.005,0.491,0.029,-0.143,0.001,57.339,0.207
1733510157012,-0.768,0.005,0.491,0.029,-0.143,0.001,57.339,0.214
1733510157013,-0.767,0.005,0.491,0.029,-0.143,0.001,57.339,0.214
1733510157014,-0.767,0.004,0.491,0.029,-0.143,0.001,57.339,0.214
1733510157014,-0.767,0.004,0.492,0.029,-0.143,0.001,57.339,0.214
1733510157015,-0.767,0.004,0.492,-0.078,-0.143,0.001,57.339,0.214
1733510157015,-0.767,0.004,0.492,-0.078,-0.097,0.001,57.339,0.214
1733510157016,-0.767,0.004,0.492,-0.078,-0.097,-0.014,57.339,0.214
1733510157035,-0.767,0.004,0.492,-0.078,-0.097,-0.014,57.353,0.214
1733510157036,-0.767,0.004,0.492,-0.078,-0.097,-0.014,57.353,0.218
1733510157037,-0.773,0.004,0.492,-0.078,-0.097,-0.014,57.353,0.218
1733510157038,-0.773,0.005,0.492,-0.078,-0.097,-0.014,57.353,0.218
1733510157039,-0.773,0.005,0.493,-0.078,-0.097,-0.014,57.353,0.218
1733510157040,-0.773,0.005,0.493,-0.213,-0.097,-0.014,57.353,0.218
1733510157041,-0.773,0.005,0.493,-0.213,0.195,-0.014,57.353,0.218
1733510157041,-0.773,0.005,0.493,-0.213,0.195,-0.272,57.353,0.218
1733510157059,-0.773,0.005,0.493,-0.213,0.195,-0.272,57.37,0.218
1733510157060,-0.773,0.005,0.493,-0.213,0.195,-0.272,57.37,0.202
1733510157063,-0.765,0.005,0.493,-0.213,0.195,-0.272,57.37,0.202
1733510157063,-0.765,0.002,0.493,-0.213,0.195,-0.272,57.37,0.202
1733510157063,-0.765,0.002,0.488,-0.213,0.195,-0.272,57.37,0.202
1733510157064,-0.765,0.002,0.488,0.197,0.195,-0.272,57.37,0.202
1733510157064,-0.765,0.002,0.488,0.197,-0.235,-0.272,57.37,0.202
1733510157064,-0.765,0.002,0.488,0.197,-0.235,-0.029,57.37,0.202
1733510157083,-0.765,0.002,0.488,0.197,-0.235,-0.029,57.331,0.202
1733510157083,-0.765,0.002,0.488,0.197,-0.235,-0.029,57.331,0.187
1733510157090,-0.765,0.002,0.488,0.197,-0.235,-0.029,57.331,0.187
1733510157090,-0.765,0.001,0.488,0.197,-0.235,-0.029,57.331,0.187
1733510157091,-0.765,0.001,0.498,0.197,-0.235,-0.029,57.331,0.187
1733510157091,-0.765,0.001,0.498,0.213,-0.235,-0.029,57.331,0.187
1733510157091,-0.765,0.001,0.498,0.213,-0.662,-0.029,57.331,0.187
1733510157091,-0.765,0.001,0.498,0.213,-0.662,0.261,57.331,0.187
1733510157122,-0.765,0.001,0.498,0.213,-0.662,0.261,57.344,0.187
1733510157123,-0.765,0.001,0.498,0.213,-0.662,0.261,57.344,0.205
1733510157123,-0.768,0.001,0.498,0.213,-0.662,0.261,57.344,0.205
1733510157124,-0.768,0.008,0.498,0.213,-0.662,0.261,57.344,0.205
1733510157124,-0.768,0.008,0.488,0.213,-0.662,0.261,57.344,0.205
1733510157124,-0.768,0.008,0.488,-0.642,-0.662,0.261,57.344,0.205
1733510157124,-0.768,0.008,0.488,-0.642,1.124,0.261,57.344,0.205
1733510157124,-0.768,0.008,0.488,-0.642,1.124,-0.243,57.344,0.205
1733510157134,-0.768,0.008,0.488,-0.642,1.124,-0.243,57.396,0.205
1733510157134,-0.768,0.008,0.488,-0.642,1.124,-0.243,57.396,0.19
1733510157139,-0.767,0.008,0.488,-0.642,1.124,-0.243,57.396,0.19
1733510157140,-0.767,-0.002,0.488,-0.642,1.124,-0.243,57.396,0.19
1733510157140,-0.767,-0.002,0.489,-0.642,1.124,-0.243,57.396,0.19
1733510157141,-0.767,-0.002,0.489,0.213,1.124,-0.243,57.396,0.19
1733510157141,-0.767,-0.002,0.489,0.213,-0.311,-0.243,57.396,0.19
1733510157141,-0.767,-0.002,0.489,0.213,-0.311,0.138,57.396,0.19
1733510157159,-0.767,-0.002,0.489,0.213,-0.311,0.138,57.379,0.19
1733510157159,-0.767,-0.002,0.489,0.213,-0.311,0.138,57.379,0.227
1733510157163,-0.768,-0.002,0.489,0.213,-0.311,0.138,57.379,0.227
1733510157164,-0.768,0.012,0.489,0.213,-0.311,0.138,57.379,0.227
1733510157164,-0.768,0.012,0.484,0.213,-0.311,0.138,57.379,0.227
1733510157165,-0.768,0.012,0.484,0.747,-0.311,0.138,57.379,0.227
1733510157165,-0.768,0.012,0.484,0.747,-1.242,0.138,57.379,0.227
1733510157165,-0.768,0.012,0.484,0.747,-1.242,0.306,57.379,0.227
1733510157185,-0.768,0.012,0.484,0.747,-1.242,0.306,57.585,0.227
1733510157186,-0.768,0.012,0.484,0.747,-1.242,0.306,57.585,0.123
1733510157188,-0.786,0.012,0.484,0.747,-1.242,0.306,57.585,0.123
1733510157189,-0.786,-0.017,0.484,0.747,-1.242,0.306,57.585,0.123
1733510157189,-0.786,-0.017,0.445,0.747,-1.242,0.306,57.585,0.123
1733510157189,-0.786,-0.017,0.445,6.308,-1.242,0.306,57.585,0.123
1733510157190,-0.786,-0.017,0.445,6.308,-16.317,0.306,57.585,0.123
1733510157190,-0.786,-0.017,0.445,6.308,-16.317,5.788,57.585,0.123
1733510157208,-0.786,-0.017,0.445,6.308,-16.317,5.788,57.204,0.123
1733510157209,-0.786,-0.017,0.445,6.308,-16.317,5.788,57.204,0.38
1733510157217,-0.752,-0.017,0.445,6.308,-16.317,5.788,57.204,0.38
1733510157217,-0.752,0.021,0.445,6.308,-16.317,5.788,57.204,0.38
1733510157217,-0.752,0.021,0.516,6.308,-16.317,5.788,57.204,0.38
1733510157217,-0.752,0.021,0.516,-0.566,-16.317,5.788,57.204,0.38
1733510157217,-0.752,0.021,0.516,-0.566,0.193,5.788,57.204,0.38
1733510157218,-0.752,0.021,0.516,-0.566,0.193,-0.852,57.204,0.38
1733510157234,-0.752,0.021,0.516,-0.566,0.193,-0.852,57.002,0.38
1733510157234,-0.752,0.021,0.516,-0.566,0.193,-0.852,57.002,0.423
1733510157238,-0.759,0.021,0.516,-0.566,0.193,-0.852,57.002,0.423
1733510157239,-0.759,0.027,0.516,-0.566,0.193,-0.852,57.002,0.423
1733510157239,-0.759,0.027,0.509,-0.566,0.193,-0.852,57.002,0.423
1733510157240,-0.759,0.027,0.509,7.327,0.193,-0.852,57.002,0.423
1733510157240,-0.759,0.027,0.509,7.327,-3.35,-0.852,57.002,0.423
1733510157240,-0.759,0.027,0.509,7.327,-3.35,-3.876,57.002,0.423
1733510157261,-0.759,0.027,0.509,7.327,-3.35,-3.876,56.836,0.423
1733510157262,-0.759,0.027,0.509,7.327,-3.35,-3.876,56.836,0.607
1733510157263,-0.756,0.027,0.509,7.327,-3.35,-3.876,56.836,0.607
1733510157263,-0.756,-0.006,0.509,7.327,-3.35,-3.876,56.836,0.607
1733510157263,-0.756,-0.006,0.509,7.327,-3.35,-3.876,56.836,0.607
1733510157263,-0.756,-0.006,0.509,7.663,-3.35,-3.876,56.836,0.607
1733510157264,-0.756,-0.006,0.509,7.663,-1.09,-3.876,56.836,0.607
1733510157264,-0.756,-0.006,0.509,7.663,-1.09,-4.991,56.836,0.607
1733510157284,-0.756,-0.006,0.509,7.663,-1.09,-4.991,56.712,0.607
1733510157285,-0.756,-0.006,0.509,7.663,-1.09,-4.991,56.712,0.634
1733510157288,-0.763,-0.006,0.509,7.663,-1.09,-4.991,56.712,0.634
1733510157289,-0.763,0.008,0.509,7.663,-1.09,-4.991,56.712,0.634
1733510157289,-0.763,0.008,0.501,7.663,-1.09,-4.991,56.712,0.634
1733510157290,-0.763,0.008,0.501,0.823,-1.09,-4.991,56.712,0.634
1733510157290,-0.763,0.008,0.501,0.823,4.132,-4.991,56.712,0.634
1733510157290,-0.763,0.008,0.501,0.823,4.132,-1.007,56.712,0.634
1733510157315,-0.763,0.008,0.501,0.823,4.132,-1.007,56.965,0.634
1733510157315,-0.763,0.008,0.501,0.823,4.132,-1.007,56.965,0.406
1733510157319,-0.777,0.008,0.501,0.823,4.132,-1.007,56.965,0.406
1733510157320,-0.777,-0.013,0.501,0.823,4.132,-1.007,56.965,0.406
1733510157320,-0.777,-0.013,0.481,0.823,4.132,-1.007,56.965,0.406
1733510157321,-0.777,-0.013,0.481,-7.65,4.132,-1.007,56.965,0.406
1733510157321,-0.777,-0.013,0.481,-7.65,3.46,-1.007,56.965,0.406
1733510157321,-0.777,-0.013,0.481,-7.65,3.46,3.024,56.965,0.406
1733510157334,-0.777,-0.013,0.481,-7.65,3.46,3.024,56.967,0.406
1733510157335,-0.777,-0.013,0.481,-7.65,3.46,3.024,56.967,0.166
1733510157338,-0.743,-0.013,0.481,-7.65,3.46,3.024,56.967,0.166
1733510157339,-0.743,0.059,0.481,-7.65,3.46,3.024,56.967,0.166
1733510157339,-0.743,0.059,0.539,-7.65,3.46,3.024,56.967,0.166
1733510157339,-0.743,0.059,0.539,-8.603,3.46,3.024,56.967,0.166
1733510157340,-0.743,0.059,0.539,-8.603,9.045,3.024,56.967,0.166
1733510157340,-0.743,0.059,0.539,-8.603,9.045,1.508,56.967,0.166
1733510157360,-0.743,0.059,0.539,-8.603,9.045,1.508,57.087,0.166
1733510157360,-0.743,0.059,0.539,-8.603,9.045,1.508,57.087,0.317
1733510157364,-0.781,0.059,0.539,-8.603,9.045,1.508,57.087,0.317
1733510157367,-0.781,-0.032,0.539,-8.603,9.045,1.508,57.087,0.317
1733510157368,-0.781,-0.032,0.468,-8.603,9.045,1.508,57.087,0.317
1733510157368,-0.781,-0.032,0.468,0.854,9.045,1.508,57.087,0.317
1733510157368,-0.781,-0.032,0.468,0.854,10.445,1.508,57.087,0.317
1733510157368,-0.781,-0.032,0.468,0.854,10.445,-7.765,57.087,0.317
1733510157384,-0.781,-0.032,0.468,0.854,10.445,-7.765,57.692,0.317
1733510157385,-0.781,-0.032,0.468,0.854,10.445,-7.765,57.692,-0.003
1733510157389,-0.78,-0.032,0.468,0.854,10.445,-7.765,57.692,-0.003
1733510157390,-0.78,-0.009,0.468,0.854,10.445,-7.765,57.692,-0.003
1733510157390,-0.78,-0.009,0.433,0.854,10.445,-7.765,57.692,-0.003
1733510157390,-0.78,-0.009,0.433,-0.017,10.445,-7.765,57.692,-0.003
1733510157391,-0.78,-0.009,0.433,-0.017,-5.41,-7.765,57.692,-0.003
1733510157391,-0.78,-0.009,0.433,-0.017,-5.41,2.413,57.692,-0.003
1733510157413,-0.78,-0.009,0.433,-0.017,-5.41,2.413,57.623,-0.003
1733510157414,-0.78,-0.009,0.433,-0.017,-5.41,2.413,57.623,-0.025
1733510157417,-0.776,-0.009,0.433,-0.017,-5.41,2.413,57.623,-0.025
1733510157417,-0.776,-0.008,0.433,-0.017,-5.41,2.413,57.623,-0.025
1733510157417,-0.776,-0.008,0.484,-0.017,-5.41,2.413,57.623,-0.025
1733510157417,-0.776,-0.008,0.484,4.243,-5.41,2.413,57.623,-0.025
1733510157417,-0.776,-0.008,0.484,4.243,-17.395,2.413,57.623,-0.025
1733510157418,-0.776,-0.008,0.484,4.243,-17.395,7.237,57.623,-0.025
1733510157435,-0.776,-0.008,0.484,4.243,-17.395,7.237,56.858,-0.025
1733510157436,-0.776,-0.008,0.484,4.243,-17.395,7.237,56.858,0.31
1733510157437,-0.729,-0.008,0.484,4.243,-17.395,7.237,56.858,0.31
1733510157437,-0.729,0.017,0.484,4.243,-17.395,7.237,56.858,0.31
1733510157438,-0.729,0.017,0.57,4.243,-17.395,7.237,56.858,0.31
1733510157439,-0.729,0.017,0.57,0.686,-17.395,7.237,56.858,0.31
1733510157439,-0.729,0.017,0.57,0.686,1.109,7.237,56.858,0.31
1733510157439,-0.729,0.017,0.57,0.686,1.109,-1.48,56.858,0.31
1733510157459,-0.729,0.017,0.57,0.686,1.109,-1.48,56.896,0.31
1733510157460,-0.729,0.017,0.57,0.686,1.109,-1.48,56.896,0.363
1733510157466,-0.783,0.017,0.57,0.686,1.109,-1.48,56.896,0.363
1733510157466,-0.783,-0.003,0.57,0.686,1.109,-1.48,56.896,0.363
1733510157467,-0.783,-0.003,0.471,0.686,1.109,-1.48,56.896,0.363
1733510157468,-0.783,-0.003,0.471,5.006,1.109,-1.48,56.896,0.363
1733510157468,-0.783,-0.003,0.471,5.006,-0.876,-1.48,56.896,0.363
1733510157468,-0.783,-0.003,0.471,5.006,-0.876,-3.007,56.896,0.363
1733510157483,-0.783,-0.003,0.471,5.006,-0.876,-3.007,56.854,0.363
1733510157484,-0.783,-0.003,0.471,5.006,-0.876,-3.007,56.854,0.509
1733510157489,-0.76,-0.003,0.471,5.006,-0.876,-3.007,56.854,0.509
1733510157489,-0.76,-0.005,0.471,5.006,-0.876,-3.007,56.854,0.509
1733510157489,-0.76,-0.005,0.518,5.006,-0.876,-3.007,56.854,0.509
1733510157489,-0.76,-0.005,0.518,4.098,-0.876,-3.007,56.854,0.509
1733510157489,-0.76,-0.005,0.518,4.098,-0.335,-3.007,56.854,0.509
1733510157490,-0.76,-0.005,0.518,4.098,-0.335,-2.391,56.854,0.509
1733510157512,-0.76,-0.005,0.518,4.098,-0.335,-2.391,56.886,0.509
1733510157512,-0.76,-0.005,0.518,4.098,-0.335,-2.391,56.886,0.488
1733510157515,-0.767,-0.005,0.518,4.098,-0.335,-2.391,56.886,0.488
1733510157516,-0.767,0.004,0.518,4.098,-0.335,-2.391,56.886,0.488
1733510157517,-0.767,0.004,0.488,4.098,-0.335,-2.391,56.886,0.488
1733510157517,-0.767,0.004,0.488,0.507,-0.335,-2.391,56.886,0.488
1733510157518,-0.767,0.004,0.488,0.507,-1.68,-2.391,56.886,0.488
1733510157518,-0.767,0.004,0.488,0.507,-1.68,-0.302,56.886,0.488
1733510157537,-0.767,0.004,0.488,0.507,-1.68,-0.302,56.778,0.488
1733510157538,-0.767,0.004,0.488,0.507,-1.68,-0.302,56.778,0.484
1733510157538,-0.76,0.004,0.488,0.507,-1.68,-0.302,56.778,0.484
1733510157538,-0.76,0.013,0.488,0.507,-1.68,-0.302,56.778,0.484
1733510157539,-0.76,0.013,0.515,0.507,-1.68,-0.302,56.778,0.484
1733510157539,-0.76,0.013,0.515,-1.421,-1.68,-0.302,56.778,0.484
1733510157539,-0.76,0.013,0.515,-1.421,3.047,-0.302,56.778,0.484
1733510157539,-0.76,0.013,0.515,-1.421,3.047,-0.396,56.778,0.484
1733510157562,-0.76,0.013,0.515,-1.421,3.047,-0.396,56.898,0.484
1733510157562,-0.76,0.013,0.515,-1.421,3.047,-0.396,56.898,0.416
1733510157565,-0.769,0.013,0.515,-1.421,3.047,-0.396,56.898,0.416
1733510157565,-0.769,0.004,0.515,-1.421,3.047,-0.396,56.898,0.416
1733510157565,-0.769,0.004,0.49,-1.421,3.047,-0.396,56.898,0.416
1733510157566,-0.769,0.004,0.49,-3.345,3.047,-0.396,56.898,0.416
1733510157566,-0.769,0.004,0.49,-3.345,5.078,-0.396,56.898,0.416
1733510157566,-0.769,0.004,0.49,-3.345,5.078,-0.961,56.898,0.416
1733510157583,-0.769,0.004,0.49,-3.345,5.078,-0.961,57.156,0.416
1733510157584,-0.769,0.004,0.49,-3.345,5.078,-0.961,57.156,0.241
1733510157588,-0.776,0.004,0.49,-3.345,5.078,-0.961,57.156,0.241
1733510157588,-0.776,-0.019,0.49,-3.345,5.078,-0.961,57.156,0.241
1733510157589,-0.776,-0.019,0.461,-3.345,5.078,-0.961,57.156,0.241
1733510157590,-0.776,-0.019,0.461,-0.81,5.078,-0.961,57.156,0.241
1733510157590,-0.776,-0.019,0.461,-0.81,-1.991,-0.961,57.156,0.241
1733510157590,-0.776,-0.019,0.461,-0.81,-1.991,1.482,57.156,0.241
1733510157609,-0.776,-0.019,0.461,-0.81,-1.991,1.482,56.97,0.241
1733510157610,-0.776,-0.019,0.461,-0.81,-1.991,1.482,56.97,0.181
1733510157615,-0.74,-0.019,0.461,-0.81,-1.991,1.482,56.97,0.181
1733510157616,-0.74,0.028,0.461,-0.81,-1.991,1.482,56.97,0.181
1733510157616,-0.74,0.028,0.541,-0.81,-1.991,1.482,56.97,0.181
1733510157616,-0.74,0.028,0.541,-4.887,-1.991,1.482,56.97,0.181
1733510157616,-0.74,0.028,0.541,-4.887,-5.258,1.482,56.97,0.181
1733510157617,-0.74,0.028,0.541,-4.887,-5.258,5.085,56.97,0.181
1733510157634,-0.74,0.028,0.541,-4.887,-5.258,5.085,56.564,0.181
1733510157635,-0.74,0.028,0.541,-4.887,-5.258,5.085,56.564,0.026
1733510157637,-0.733,0.028,0.541,-4.887,-5.258,5.085,56.564,0.026
1733510157639,-0.733,-0.024,0.541,-4.887,-5.258,5.085,56.564,0.026
1733510157640,-0.733,-0.024,0.524,-4.887,-5.258,5.085,56.564,0.026
1733510157640,-0.733,-0.024,0.524,-7.986,-5.258,5.085,56.564,0.026
1733510157640,-0.733,-0.024,0.524,-7.986,-0.403,5.085,56.564,0.026
1733510157641,-0.733,-0.024,0.524,-7.986,-0.403,6.23,56.564,0.026
1733510157663,-0.733,-0.024,0.524,-7.986,-0.403,6.23,56.557,0.026
1733510157664,-0.733,-0.024,0.524,-7.986,-0.403,6.23,56.557,0.043
1733510157665,-0.773,-0.024,0.524,-7.986,-0.403,6.23,56.557,0.043
1733510157665,-0.773,0.025,0.524,-7.986,-0.403,6.23,56.557,0.043
1733510157665,-0.773,0.025,0.46,-7.986,-0.403,6.23,56.557,0.043
1733510157665,-0.773,0.025,0.46,-8.566,-0.403,6.23,56.557,0.043
1733510157666,-0.773,0.025,0.46,-8.566,0.086,6.23,56.557,0.043
1733510157666,-0.773,0.025,0.46,-8.566,0.086,5.68,56.557,0.043
1733510157684,-0.773,0.025,0.46,-8.566,0.086,5.68,56.609,0.043
1733510157684,-0.773,0.025,0.46,-8.566,0.086,5.68,56.609,-0.32
1733510157688,-0.761,0.025,0.46,-8.566,0.086,5.68,56.609,-0.32
1733510157690,-0.761,0.038,0.46,-8.566,0.086,5.68,56.609,-0.32
1733510157690,-0.761,0.038,0.496,-8.566,0.086,5.68,56.609,-0.32
1733510157690,-0.761,0.038,0.496,-11.297,0.086,5.68,56.609,-0.32
1733510157691,-0.761,0.038,0.496,-11.297,1.701,5.68,56.609,-0.32
1733510157691,-0.761,0.038,0.496,-11.297,1.701,8.671,56.609,-0.32
1733510157708,-0.761,0.038,0.496,-11.297,1.701,8.671,56.62,-0.32
1733510157709,-0.761,0.038,0.496,-11.297,1.701,8.671,56.62,-0.441
1733510157712,-0.765,0.038,0.496,-11.297,1.701,8.671,56.62,-0.441
1733510157715,-0.765,0.021,0.496,-11.297,1.701,8.671,56.62,-0.441
1733510157715,-0.765,0.021,0.502,-11.297,1.701,8.671,56.62,-0.441
1733510157716,-0.765,0.021,0.502,-9.619,1.701,8.671,56.62,-0.441
1733510157716,-0.765,0.021,0.502,-9.619,-2.372,8.671,56.62,-0.441
1733510157716,-0.765,0.021,0.502,-9.619,-2.372,8.825,56.62,-0.441
1733510157735,-0.765,0.021,0.502,-9.619,-2.372,8.825,56.579,-0.441
1733510157735,-0.765,0.021,0.502,-9.619,-2.372,8.825,56.579,-0.45
1733510157739,-0.772,0.021,0.502,-9.619,-2.372,8.825,56.579,-0.45
1733510157741,-0.772,0.005,0.502,-9.619,-2.372,8.825,56.579,-0.45
1733510157741,-0.772,0.005,0.5,-9.619,-2.372,8.825,56.579,-0.45
1733510157742,-0.772,0.005,0.5,-5.146,-2.372,8.825,56.579,-0.45
1733510157742,-0.772,0.005,0.5,-5.146,-0.571,8.825,56.579,-0.45
1733510157742,-0.772,0.005,0.5,-5.146,-0.571,4.413,56.579,-0.45
1733510157760,-0.772,0.005,0.5,-5.146,-0.571,4.413,56.666,-0.45
1733510157761,-0.772,0.005,0.5,-5.146,-0.571,4.413,56.666,-0.497
1733510157767,-0.761,0.005,0.5,-5.146,-0.571,4.413,56.666,-0.497
1733510157789,-0.773,0.007,0.517,-3.146,1.872,2.917,56.433,-0.361
1733510157789,-0.773,0.007,0.532,-3.146,1.872,2.917,56.433,-0.361
1733510157790,-0.773,0.007,0.532,-0.52,1.872,2.917,56.433,-0.361
1733510157790,-0.773,0.007,0.532,-0.52,-2.311,2.917,56.433,-0.361
1733510157790,-0.773,0.007,0.532,-0.52,-2.311,0.581,56.433,-0.361
1733510157813,-0.773,0.007,0.532,-0.52,-2.311,0.581,56.418,-0.361
1733510157813,-0.773,0.007,0.532,-0.52,-2.311,0.581,56.418,-0.231
1733510157814,-0.783,0.007,0.532,-0.52,-2.311,0.581,56.418,-0.231
1733510157815,-0.783,-0.003,0.532,-0.52,-2.311,0.581,56.418,-0.231
1733510157815,-0.783,-0.003,0.532,-0.52,-2.311,0.581,56.418,-0.231
1733510157815,-0.783,-0.003,0.532,5.877,-2.311,0.581,56.418,-0.231
1733510157816,-0.783,-0.003,0.532,5.877,-3.013,0.581,56.418,-0.231
1733510157816,-0.783,-0.003,0.532,5.877,-3.013,-4.793,56.418,-0.231
1733510157835,-0.783,-0.003,0.532,5.877,-3.013,-4.793,56.217,-0.231
1733510157835,-0.783,-0.003,0.532,5.877,-3.013,-4.793,56.217,0.051
1733510157838,-0.77,-0.003,0.532,5.877,-3.013,-4.793,56.217,0.051
1733510157838,-0.77,-0.032,0.532,5.877,-3.013,-4.793,56.217,0.051
1733510157839,-0.77,-0.032,0.498,5.877,-3.013,-4.793,56.217,0.051
1733510157839,-0.77,-0.032,0.498,12.111,-3.013,-4.793,56.217,0.051
1733510157839,-0.77,-0.032,0.498,12.111,-4.724,-4.793,56.217,0.051
1733510157839,-0.77,-0.032,0.498,12.111,-4.724,-7.805,56.217,0.051
1733510157859,-0.77,-0.032,0.498,12.111,-4.724,-7.805,56.061,0.051
1733510157859,-0.77,-0.032,0.498,12.111,-4.724,-7.805,56.061,0.402
1733510157879,-0.757,-0.032,0.498,12.111,-4.724,-7.805,56.061,0.402
1733510157880,-0.757,0.047,0.498,12.111,-4.724,-7.805,56.061,0.402
1733510157880,-0.757,0.047,0.5,12.111,-4.724,-7.805,56.061,0.402
1733510157880,-0.757,0.047,0.5,3.271,-4.724,-7.805,56.061,0.402
1733510157881,-0.757,0.047,0.5,3.271,-17.687,-7.805,56.061,0.402
1733510157881,-0.757,0.047,0.5,3.271,-17.687,-3.028,56.061,0.402
1733510157884,-0.757,0.047,0.5,3.271,-17.687,-3.028,55.495,0.402
1733510157884,-0.757,0.047,0.5,3.271,-17.687,-3.028,55.495,0.659
1733510157887,-0.768,0.047,0.5,3.271,-17.687,-3.028,55.495,0.659
1733510157887,-0.768,-0.046,0.5,3.271,-17.687,-3.028,55.495,0.659
1733510157888,-0.768,-0.046,0.49,3.271,-17.687,-3.028,55.495,0.659
1733510157889,-0.768,-0.046,0.49,7.037,-17.687,-3.028,55.495,0.659
1733510157889,-0.768,-0.046,0.49,7.037,-20.388,-3.028,55.495,0.659
1733510157889,-0.768,-0.046,0.49,7.037,-20.388,-7.434,55.495,0.659
1733510157915,-0.768,-0.046,0.49,7.037,-20.388,-7.434,55.358,0.659
1733510157915,-0.768,-0.046,0.49,7.037,-20.388,-7.434,55.358,0.388
1733510157917,-0.751,-0.046,0.49,7.037,-20.388,-7.434,55.358,0.388
1733510157917,-0.751,-0.009,0.49,7.037,-20.388,-7.434,55.358,0.388
1733510157920,-0.751,-0.009,0.523,7.037,-20.388,-7.434,55.358,0.388
1733510157920,-0.751,-0.009,0.523,-0.505,-20.388,-7.434,55.358,0.388
1733510157920,-0.751,-0.009,0.523,-0.505,-17.258,-7.434,55.358,0.388
1733510157921,-0.751,-0.009,0.523,-0.505,-17.258,1.94,55.358,0.388
1733510157937,-0.751,-0.009,0.523,-0.505,-17.258,1.94,54.557,0.388
1733510157938,-0.751,-0.009,0.523,-0.505,-17.258,1.94,54.557,0.713
1733510157938,-0.742,-0.009,0.523,-0.505,-17.258,1.94,54.557,0.713
1733510157939,-0.742,0.02,0.523,-0.505,-17.258,1.94,54.557,0.713
1733510157939,-0.742,0.02,0.538,-0.505,-17.258,1.94,54.557,0.713
1733510157942,-0.742,0.02,0.538,9.159,-17.258,1.94,54.557,0.713
1733510157943,-0.742,0.02,0.538,9.159,-28.708,1.94,54.557,0.713
1733510157943,-0.742,0.02,0.538,9.159,-28.708,-10.793,54.557,0.713
1733510157964,-0.742,0.02,0.538,9.159,-28.708,-10.793,54.254,0.713
1733510157964,-0.742,0.02,0.538,9.159,-28.708,-10.793,54.254,0.546
1733510157965,-0.737,0.02,0.538,9.159,-28.708,-10.793,54.254,0.546
1733510157966,-0.737,-0.011,0.538,9.159,-28.708,-10.793,54.254,0.546
1733510157969,-0.737,-0.011,0.519,9.159,-28.708,-10.793,54.254,0.546
1733510157969,-0.737,-0.011,0.519,9.938,-28.708,-10.793,54.254,0.546
1733510157969,-0.737,-0.011,0.519,9.938,-20.464,-10.793,54.254,0.546
1733510157970,-0.737,-0.011,0.519,9.938,-20.464,-7.892,54.254,0.546
1733510157983,-0.737,-0.011,0.519,9.938,-20.464,-7.892,53.698,0.546
1733510157983,-0.737,-0.011,0.519,9.938,-20.464,-7.892,53.698,1.013
1733510157987,-0.754,-0.011,0.519,9.938,-20.464,-7.892,53.698,1.013
1733510157988,-0.754,0.024,0.519,9.938,-20.464,-7.892,53.698,1.013
1733510157988,-0.754,0.024,0.497,9.938,-20.464,-7.892,53.698,1.013
1733510157988,-0.754,0.024,0.497,7.893,-20.464,-7.892,53.698,1.013
1733510157988,-0.754,0.024,0.497,7.893,-30.625,-7.892,53.698,1.013
1733510157988,-0.754,0.024,0.497,7.893,-30.625,-8.643,53.698,1.013
1733510158012,-0.754,0.024,0.497,7.893,-30.625,-8.643,52.95,1.013
1733510158012,-0.754,0.024,0.497,7.893,-30.625,-8.643,52.95,1.022
1733510158014,-0.703,0.024,0.497,7.893,-30.625,-8.643,52.95,1.022
1733510158015,-0.703,-0.03,0.497,7.893,-30.625,-8.643,52.95,1.022
1733510158015,-0.703,-0.03,0.582,7.893,-30.625,-8.643,52.95,1.022
1733510158015,-0.703,-0.03,0.582,7.06,-30.625,-8.643,52.95,1.022
1733510158015,-0.703,-0.03,0.582,7.06,-27.329,-8.643,52.95,1.022
1733510158016,-0.703,-0.03,0.582,7.06,-27.329,-7.133,52.95,1.022
1733510158038,-0.703,-0.03,0.582,7.06,-27.329,-7.133,52.707,1.022
1733510158039,-0.703,-0.03,0.582,7.06,-27.329,-7.133,52.707,0.974
1733510158040,-0.755,-0.03,0.582,7.06,-27.329,-7.133,52.707,0.974
1733510158040,-0.755,0.047,0.582,7.06,-27.329,-7.133,52.707,0.974
1733510158040,-0.755,0.047,0.511,7.06,-27.329,-7.133,52.707,0.974
1733510158041,-0.755,0.047,0.511,2.884,-27.329,-7.133,52.707,0.974
1733510158041,-0.755,0.047,0.511,2.884,-28.433,-7.133,52.707,0.974
1733510158041,-0.755,0.047,0.511,2.884,-28.433,-3.632,52.707,0.974
1733510158058,-0.755,0.047,0.511,2.884,-28.433,-3.632,52.219,0.974
1733510158059,-0.755,0.047,0.511,2.884,-28.433,-3.632,52.219,0.926
1733510158062,-0.737,0.047,0.511,2.884,-28.433,-3.632,52.219,0.926
1733510158063,-0.737,-0.038,0.511,2.884,-28.433,-3.632,52.219,0.926
1733510158063,-0.737,-0.038,0.535,2.884,-28.433,-3.632,52.219,0.926
1733510158064,-0.737,-0.038,0.535,0.854,-28.433,-3.632,52.219,0.926
1733510158064,-0.737,-0.038,0.535,0.854,-29.426,-3.632,52.219,0.926
1733510158064,-0.737,-0.038,0.535,0.854,-29.426,-0.946,52.219,0.926
1733510158084,-0.737,-0.038,0.535,0.854,-29.426,-0.946,51.973,0.926
1733510158085,-0.737,-0.038,0.535,0.854,-29.426,-0.946,51.973,1.071
1733510158087,-0.727,-0.038,0.535,0.854,-29.426,-0.946,51.973,1.071
1733510158088,-0.727,0.013,0.535,0.854,-29.426,-0.946,51.973,1.071
1733510158088,-0.727,0.013,0.511,0.854,-29.426,-0.946,51.973,1.071
1733510158089,-0.727,0.013,0.511,6.151,-29.426,-0.946,51.973,1.071
1733510158089,-0.727,0.013,0.511,6.151,-18.449,-0.946,51.973,1.071
1733510158089,-0.727,0.013,0.511,6.151,-18.449,-7.587,51.973,1.071
1733510158109,-0.727,0.013,0.511,6.151,-18.449,-7.587,51.976,1.071
1733510158110,-0.727,0.013,0.511,6.151,-18.449,-7.587,51.976,0.518
1733510158114,-0.746,0.013,0.511,6.151,-18.449,-7.587,51.976,0.518
1733510158115,-0.746,0.025,0.511,6.151,-18.449,-7.587,51.976,0.518
1733510158116,-0.746,0.025,0.531,6.151,-18.449,-7.587,51.976,0.518
1733510158116,-0.746,0.025,0.531,-8.612,-18.449,-7.587,51.976,0.518
1733510158116,-0.746,0.025,0.531,-8.612,-12.662,-7.587,51.976,0.518
1733510158117,-0.746,0.025,0.531,-8.612,-12.662,9.345,51.976,0.518
1733510158136,-0.746,0.025,0.531,-8.612,-12.662,9.345,51.838,0.518
1733510158137,-0.746,0.025,0.531,-8.612,-12.662,9.345,51.838,0.979
1733510158140,-0.702,0.025,0.531,-8.612,-12.662,9.345,51.838,0.979
1733510158141,-0.702,-0.004,0.531,-8.612,-12.662,9.345,51.838,0.979
1733510158141,-0.702,-0.004,0.583,-8.612,-12.662,9.345,51.838,0.979
1733510158141,-0.702,-0.004,0.583,7.739,-12.662,9.345,51.838,0.979
1733510158142,-0.702,-0.004,0.583,7.739,-8.998,9.345,51.838,0.979
1733510158142,-0.702,-0.004,0.583,7.739,-8.998,-9.388,51.838,0.979
1733510158159,-0.702,-0.004,0.583,7.739,-8.998,-9.388,52.05,0.979
1733510158160,-0.702,-0.004,0.583,7.739,-8.998,-9.388,52.05,0.555
1733510158162,-0.743,-0.004,0.583,7.739,-8.998,-9.388,52.05,0.555
1733510158163,-0.743,-0.008,0.583,7.739,-8.998,-9.388,52.05,0.555
1733510158163,-0.743,-0.008,0.534,7.739,-8.998,-9.388,52.05,0.555
1733510158163,-0.743,-0.008,0.534,-2.491,-8.998,-9.388,52.05,0.555
1733510158164,-0.743,-0.008,0.534,-2.491,0.325,-9.388,52.05,0.555
1733510158164,-0.743,-0.008,0.534,-2.491,0.325,4.166,52.05,0.555
1733510158185,-0.743,-0.008,0.534,-2.491,0.325,4.166,52.396,0.555
1733510158185,-0.743,-0.008,0.534,-2.491,0.325,4.166,52.396,0.619
1733510158189,-0.733,-0.008,0.534,-2.491,0.325,4.166,52.396,0.619
1733510158189,-0.733,0.063,0.534,-2.491,0.325,4.166,52.396,0.619
1733510158189,-0.733,0.063,0.527,-2.491,0.325,4.166,52.396,0.619
1733510158190,-0.733,0.063,0.527,-5.62,0.325,4.166,52.396,0.619
1733510158190,-0.733,0.063,0.527,-5.62,2.193,4.166,52.396,0.619
1733510158190,-0.733,0.063,0.527,-5.62,2.193,3.589,52.396,0.619
1733510158208,-0.733,0.063,0.527,-5.62,2.193,3.589,52.552,0.619
1733510158209,-0.733,0.063,0.527,-5.62,2.193,3.589,52.552,0.38
1733510158212,-0.732,0.063,0.527,-5.62,2.193,3.589,52.552,0.38
1733510158213,-0.732,-0.05,0.527,-5.62,2.193,3.589,52.552,0.38
1733510158214,-0.732,-0.05,0.554,-5.62,2.193,3.589,52.552,0.38
1733510158215,-0.732,-0.05,0.554,-7.039,2.193,3.589,52.552,0.38
1733510158215,-0.732,-0.05,0.554,-7.039,-1.212,3.589,52.552,0.38
1733510158215,-0.732,-0.05,0.554,-7.039,-1.212,7.222,52.552,0.38
1733510158234,-0.732,-0.05,0.554,-7.039,-1.212,7.222,52.876,0.38
1733510158234,-0.732,-0.05,0.554,-7.039,-1.212,7.222,52.876,0.018
1733510158242,-0.73,-0.05,0.554,-7.039,-1.212,7.222,52.876,0.018
1733510158243,-0.73,0.032,0.554,-7.039,-1.212,7.222,52.876,0.018
1733510158244,-0.73,0.032,0.575,-7.039,-1.212,7.222,52.876,0.018
1733510158244,-0.73,0.032,0.575,-10.184,-1.212,7.222,52.876,0.018
1733510158244,-0.73,0.032,0.575,-10.184,4.773,7.222,52.876,0.018
1733510158245,-0.73,0.032,0.575,-10.184,4.773,11.818,52.876,0.018
1733510158260,-0.73,0.032,0.575,-10.184,4.773,11.818,52.714,0.018
1733510158261,-0.73,0.032,0.575,-10.184,4.773,11.818,52.714,0.119
1733510158262,-0.721,0.032,0.575,-10.184,4.773,11.818,52.714,0.119
1733510158262,-0.721,0.011,0.575,-10.184,4.773,11.818,52.714,0.119
1733510158263,-0.721,0.011,0.571,-10.184,4.773,11.818,52.714,0.119
1733510158263,-0.721,0.011,0.571,-8.749,4.773,11.818,52.714,0.119
1733510158264,-0.721,0.011,0.571,-8.749,-3.884,11.818,52.714,0.119
1733510158264,-0.721,0.011,0.571,-8.749,-3.884,6.841,52.714,0.119
1733510158286,-0.721,0.011,0.571,-8.749,-3.884,6.841,52.783,0.119
1733510158287,-0.721,0.011,0.571,-8.749,-3.884,6.841,52.783,-0.196
1733510158288,-0.713,0.011,0.571,-8.749,-3.884,6.841,52.783,-0.196
1733510158288,-0.713,-0.03,0.571,-8.749,-3.884,6.841,52.783,-0.196
1733510158290,-0.713,-0.03,0.556,-8.749,-3.884,6.841,52.783,-0.196
1733510158290,-0.713,-0.03,0.556,-2.627,-3.884,6.841,52.783,-0.196
1733510158291,-0.713,-0.03,0.556,-2.627,-0.616,6.841,52.783,-0.196
1733510158291,-0.713,-0.03,0.556,-2.627,-0.616,2.154,52.783,-0.196
1733510158309,-0.713,-0.03,0.556,-2.627,-0.616,2.154,52.43,-0.196
1733510158309,-0.713,-0.03,0.556,-2.627,-0.616,2.154,52.43,-0.23
1733510158313,-0.724,-0.03,0.556,-2.627,-0.616,2.154,52.43,-0.23
1733510158313,-0.724,0.041,0.556,-2.627,-0.616,2.154,52.43,-0.23
1733510158314,-0.724,0.041,0.55,-2.627,-0.616,2.154,52.43,-0.23
1733510158314,-0.724,0.041,0.55,-3.665,-0.616,2.154,52.43,-0.23
1733510158314,-0.724,0.041,0.55,-3.665,-18.449,2.154,52.43,-0.23
1733510158315,-0.724,0.041,0.55,-3.665,-18.449,4.261,52.43,-0.23
1733510158334,-0.724,0.041,0.55,-3.665,-18.449,4.261,51.965,-0.23
1733510158334,-0.724,0.041,0.55,-3.665,-18.449,4.261,51.965,0.071
1733510158343,-0.705,0.041,0.55,-3.665,-18.449,4.261,51.965,0.071
1733510158344,-0.705,-0.045,0.55,-3.665,-18.449,4.261,51.965,0.071
1733510158344,-0.705,-0.045,0.571,-3.665,-18.449,4.261,51.965,0.071
1733510158345,-0.705,-0.045,0.571,7.275,-18.449,4.261,51.965,0.071
1733510158345,-0.705,-0.045,0.571,7.275,-27.268,4.261,51.965,0.071
1733510158346,-0.705,-0.045,0.571,7.275,-27.268,-8.187,51.965,0.071
1733510158360,-0.705,-0.045,0.571,7.275,-27.268,-8.187,51.405,0.071
1733510158361,-0.705,-0.045,0.571,7.275,-27.268,-8.187,51.405,-0.034
1733510158361,-0.732,-0.045,0.571,7.275,-27.268,-8.187,51.405,-0.034
1733510158361,-0.732,0.077,0.571,7.275,-27.268,-8.187,51.405,-0.034
1733510158362,-0.732,0.077,0.516,7.275,-27.268,-8.187,51.405,-0.034
1733510158365,-0.732,0.077,0.516,-1.038,-27.268,-8.187,51.405,-0.034
1733510158365,-0.732,0.077,0.516,-1.038,-32.71,-8.187,51.405,-0.034
1733510158366,-0.732,0.077,0.516,-1.038,-32.71,-0.421,51.405,-0.034
1733510158384,-0.732,0.077,0.516,-1.038,-32.71,-0.421,50.754,-0.034
1733510158385,-0.732,0.077,0.516,-1.038,-32.71,-0.421,50.754,0.005
1733510158390,-0.745,0.077,0.516,-1.038,-32.71,-0.421,50.754,0.005
1733510158390,-0.745,-0.019,0.516,-1.038,-32.71,-0.421,50.754,0.005
1733510158391,-0.745,-0.019,0.54,-1.038,-32.71,-0.421,50.754,0.005
1733510158391,-0.745,-0.019,0.54,-6.612,-32.71,-0.421,50.754,0.005
1733510158391,-0.745,-0.019,0.54,-6.612,-38.83,-0.421,50.754,0.005
1733510158392,-0.745,-0.019,0.54,-6.612,-38.83,3.833,50.754,0.005
1733510158412,-0.745,-0.019,0.54,-6.612,-38.83,3.833,50.066,0.005
1733510158413,-0.745,-0.019,0.54,-6.612,-38.83,3.833,50.066,-0.013
1733510158414,-0.665,-0.019,0.54,-6.612,-38.83,3.833,50.066,-0.013
1733510158414,-0.665,-0.009,0.54,-6.612,-38.83,3.833,50.066,-0.013
1733510158415,-0.665,-0.009,0.608,-6.612,-38.83,3.833,50.066,-0.013
1733510158415,-0.665,-0.009,0.608,-3.146,-38.83,3.833,50.066,-0.013
1733510158416,-0.665,-0.009,0.608,-3.146,-39.258,3.833,50.066,-0.013
1733510158416,-0.665,-0.009,0.608,-3.146,-39.258,0.719,50.066,-0.013
1733510158435,-0.665,-0.009,0.608,-3.146,-39.258,0.719,49.631,-0.013
1733510158435,-0.665,-0.009,0.608,-3.146,-39.258,0.719,49.631,-0.222
1733510158436,-0.711,-0.009,0.608,-3.146,-39.258,0.719,49.631,-0.222
1733510158437,-0.711,0.007,0.608,-3.146,-39.258,0.719,49.631,-0.222
1733510158437,-0.711,0.007,0.562,-3.146,-39.258,0.719,49.631,-0.222
1733510158440,-0.711,0.007,0.562,-7.284,-39.258,0.719,49.631,-0.222
1733510158440,-0.711,0.007,0.562,-7.284,-32.922,0.719,49.631,-0.222
1733510158440,-0.711,0.007,0.562,-7.284,-32.922,5.39,49.631,-0.222
1733510158459,-0.711,0.007,0.562,-7.284,-32.922,5.39,49.053,-0.222
1733510158460,-0.711,0.007,0.562,-7.284,-32.922,5.39,49.053,-0.21
1733510158464,-0.723,0.007,0.562,-7.284,-32.922,5.39,49.053,-0.21
1733510158464,-0.723,0.034,0.562,-7.284,-32.922,5.39,49.053,-0.21
1733510158464,-0.723,0.034,0.522,-7.284,-32.922,5.39,49.053,-0.21
1733510158465,-0.723,0.034,0.522,-5.787,-32.922,5.39,49.053,-0.21
1733510158465,-0.723,0.034,0.522,-5.787,-34.708,5.39,49.053,-0.21
1733510158465,-0.723,0.034,0.522,-5.787,-34.708,4.016,49.053,-0.21
1733510158484,-0.723,0.034,0.522,-5.787,-34.708,4.016,48.599,-0.21
1733510158485,-0.723,0.034,0.522,-5.787,-34.708,4.016,48.599,-0.332
1733510158492,-0.704,0.034,0.522,-5.787,-34.708,4.016,48.599,-0.332
1733510158493,-0.704,0.015,0.522,-5.787,-34.708,4.016,48.599,-0.332
1733510158493,-0.704,0.015,0.593,-5.787,-34.708,4.016,48.599,-0.332
1733510158494,-0.704,0.015,0.593,-3.951,-34.708,4.016,48.599,-0.332
1733510158494,-0.704,0.015,0.593,-3.951,-32.501,4.016,48.599,-0.332
1733510158494,-0.704,0.015,0.593,-3.951,-32.501,2.243,48.599,-0.332
1733510158511,-0.704,0.015,0.593,-3.951,-32.501,2.243,48.531,-0.332
1733510158512,-0.704,0.015,0.593,-3.951,-32.501,2.243,48.531,-0.312
1733510158513,-0.689,0.015,0.593,-3.951,-32.501,2.243,48.531,-0.312
1733510158513,-0.689,-0.011,0.593,-3.951,-32.501,2.243,48.531,-0.312
1733510158513,-0.689,-0.011,0.589,-3.951,-32.501,2.243,48.531,-0.312
1733510158513,-0.689,-0.011,0.589,-2.291,-32.501,2.243,48.531,-0.312
1733510158514,-0.689,-0.011,0.589,-2.291,-21.186,2.243,48.531,-0.312
1733510158514,-0.689,-0.011,0.589,-2.291,-21.186,1.008,48.531,-0.312
1733510158535,-0.689,-0.011,0.589,-2.291,-21.186,1.008,48.082,-0.312
1733510158536,-0.689,-0.011,0.589,-2.291,-21.186,1.008,48.082,-0.283
1733510158540,-0.695,-0.011,0.589,-2.291,-21.186,1.008,48.082,-0.283
1733510158541,-0.695,0.005,0.589,-2.291,-21.186,1.008,48.082,-0.283
1733510158541,-0.695,0.005,0.58,-2.291,-21.186,1.008,48.082,-0.283
1733510158541,-0.695,0.005,0.58,-3.177,-21.186,1.008,48.082,-0.283
1733510158541,-0.695,0.005,0.58,-3.177,-23.258,1.008,48.082,-0.283
1733510158542,-0.695,0.005,0.58,-3.177,-23.258,2.062,48.082,-0.283
1733510158570,-0.695,0.005,0.58,-3.177,-23.258,2.062,48.26,-0.283
1733510158570,-0.695,0.005,0.58,-3.177,-23.258,2.062,48.26,-0.326
1733510158571,-0.716,0.005,0.58,-3.177,-23.258,2.062,48.26,-0.326
1733510158571,-0.716,-0.013,0.58,-3.177,-23.258,2.062,48.26,-0.326
1733510158571,-0.716,-0.013,0.561,-3.177,-23.258,2.062,48.26,-0.326
1733510158571,-0.716,-0.013,0.561,-1.375,-23.258,2.062,48.26,-0.326
1733510158572,-0.716,-0.013,0.561,-1.375,-7.518,2.062,48.26,-0.326
1733510158572,-0.716,-0.013,0.561,-1.375,-7.518,0.841,48.26,-0.326
1733510158584,-0.716,-0.013,0.561,-1.375,-7.518,0.841,48.605,-0.326
1733510158585,-0.716,-0.013,0.561,-1.375,-7.518,0.841,48.605,-0.5
1733510158587,-0.661,-0.013,0.561,-1.375,-7.518,0.841,48.605,-0.5
1733510158587,-0.661,0.026,0.561,-1.375,-7.518,0.841,48.605,-0.5
1733510158588,-0.661,0.026,0.617,-1.375,-7.518,0.841,48.605,-0.5
1733510158592,-0.661,0.026,0.617,-11.421,-7.518,0.841,48.605,-0.5
1733510158592,-0.661,0.026,0.617,-11.421,1.032,0.841,48.605,-0.5
1733510158592,-0.661,0.026,0.617,-11.421,1.032,13.192,48.605,-0.5
1733510158610,-0.661,0.026,0.617,-11.421,1.032,13.192,48.728,-0.5
1733510158611,-0.661,0.026,0.617,-11.421,1.032,13.192,48.728,-0.406
1733510158611,-0.679,0.026,0.617,-11.421,1.032,13.192,48.728,-0.406
1733510158612,-0.679,0.011,0.617,-11.421,1.032,13.192,48.728,-0.406
1733510158612,-0.679,0.011,0.578,-11.421,1.032,13.192,48.728,-0.406
1733510158613,-0.679,0.011,0.578,-9.833,1.032,13.192,48.728,-0.406
1733510158614,-0.679,0.011,0.578,-9.833,2.361,13.192,48.728,-0.406
1733510158615,-0.679,0.011,0.578,-9.833,2.361,8.062,48.728,-0.406
1733510158635,-0.679,0.011,0.578,-9.833,2.361,8.062,48.964,-0.406
1733510158636,-0.679,0.011,0.578,-9.833,2.361,8.062,48.964,-0.751
1733510158640,-0.68,0.011,0.578,-9.833,2.361,8.062,48.964,-0.751
1733510158641,-0.68,-0.012,0.578,-9.833,2.361,8.062,48.964,-0.751
1733510158642,-0.68,-0.012,0.6,-9.833,2.361,8.062,48.964,-0.751
1733510158643,-0.68,-0.012,0.6,-2.37,2.361,8.062,48.964,-0.751
1733510158643,-0.68,-0.012,0.6,-2.37,-1.037,8.062,48.964,-0.751
1733510158643,-0.68,-0.012,0.6,-2.37,-1.037,2.809,48.964,-0.751
1733510158667,-0.68,-0.012,0.6,-2.37,-1.037,2.809,48.807,-0.751
1733510158668,-0.68,-0.012,0.6,-2.37,-1.037,2.809,48.807,-0.592
1733510158668,-0.678,-0.012,0.6,-2.37,-1.037,2.809,48.807,-0.592
1733510158668,-0.678,-0.015,0.6,-2.37,-1.037,2.809,48.807,-0.592
1733510158669,-0.678,-0.015,0.574,-2.37,-1.037,2.809,48.807,-0.592
1733510158669,-0.678,-0.015,0.574,1.008,-1.037,2.809,48.807,-0.592
1733510158670,-0.678,-0.015,0.574,1.008,-11.701,2.809,48.807,-0.592
1733510158670,-0.678,-0.015,0.574,1.008,-11.701,0.287,48.807,-0.592
1733510158698,-0.678,-0.015,0.574,1.008,-11.701,0.287,48.394,-0.592
1733510158699,-0.678,-0.015,0.574,1.008,-11.701,0.287,48.394,-0.485
1733510158700,-0.672,-0.015,0.574,1.008,-11.701,0.287,48.394,-0.485
1733510158700,-0.672,0.026,0.574,1.008,-11.701,0.287,48.394,-0.485
1733510158700,-0.672,0.026,0.604,1.008,-11.701,0.287,48.394,-0.485
1733510158701,-0.672,0.026,0.604,-3.833,-11.701,0.287,48.394,-0.485
1733510158701,-0.672,0.026,0.604,-3.833,-18.448,0.287,48.394,-0.485
1733510158702,-0.672,0.026,0.604,-3.833,-18.448,4.001,48.394,-0.485
1733510158708,-0.672,0.026,0.604,-3.833,-18.448,4.001,48.263,-0.485
1733510158708,-0.672,0.026,0.604,-3.833,-18.448,4.001,48.263,-0.331
1733510158712,-0.671,0.026,0.604,-3.833,-18.448,4.001,48.263,-0.331
1733510158713,-0.671,-0.011,0.604,-3.833,-18.448,4.001,48.263,-0.331
1733510158713,-0.671,-0.011,0.615,-3.833,-18.448,4.001,48.263,-0.331
1733510158713,-0.671,-0.011,0.615,2.731,-18.448,4.001,48.263,-0.331
1733510158713,-0.671,-0.011,0.615,2.731,-11.044,4.001,48.263,-0.331
1733510158713,-0.671,-0.011,0.615,2.731,-11.044,-5.709,48.263,-0.331
1733510158734,-0.671,-0.011,0.615,2.731,-11.044,-5.709,48.202,-0.331
1733510158734,-0.671,-0.011,0.615,2.731,-11.044,-5.709,48.202,-0.465
1733510158737,-0.655,-0.011,0.615,2.731,-11.044,-5.709,48.202,-0.465
1733510158738,-0.655,-0.012,0.615,2.731,-11.044,-5.709,48.202,-0.465
1733510158738,-0.655,-0.012,0.595,2.731,-11.044,-5.709,48.202,-0.465
1733510158738,-0.655,-0.012,0.595,-0.658,-11.044,-5.709,48.202,-0.465
1733510158738,-0.655,-0.012,0.595,-0.658,-10.296,-5.709,48.202,-0.465
1733510158739,-0.655,-0.012,0.595,-0.658,-10.296,1.619,48.202,-0.465
1733510158762,-0.655,-0.012,0.595,-0.658,-10.296,1.619,47.995,-0.465
1733510158763,-0.655,-0.012,0.595,-0.658,-10.296,1.619,47.995,-0.243
1733510158766,-0.696,-0.012,0.595,-0.658,-10.296,1.619,47.995,-0.243
1733510158767,-0.696,0.023,0.595,-0.658,-10.296,1.619,47.995,-0.243
1733510158767,-0.696,0.023,0.582,-0.658,-10.296,1.619,47.995,-0.243
1733510158767,-0.696,0.023,0.582,-2.291,-10.296,1.619,47.995,-0.243
1733510158768,-0.696,0.023,0.582,-2.291,-10.586,1.619,47.995,-0.243
1733510158768,-0.696,0.023,0.582,-2.291,-10.586,2.2,47.995,-0.243
1733510158802,-0.696,0.023,0.582,-2.291,-10.586,2.2,48.293,-0.243
1733510158803,-0.696,0.023,0.582,-2.291,-10.586,2.2,48.293,-0.235
1733510158804,-0.686,0.023,0.582,-2.291,-10.586,2.2,48.293,-0.235
1733510158809,-0.686,-0.048,0.582,-2.291,-10.586,2.2,48.293,-0.235
1733510158812,-0.686,-0.048,0.579,-2.291,-10.586,2.2,48.293,-0.235
1733510158814,-0.686,-0.048,0.579,2.411,-10.586,2.2,48.293,-0.235
1733510158820,-0.686,-0.048,0.579,2.411,0.971,2.2,48.293,-0.235
1733510158822,-0.686,-0.048,0.579,2.411,0.971,-3.862,48.293,-0.235
1733510158822,-0.686,-0.048,0.579,2.411,0.971,-3.862,48.291,-0.235
1733510158822,-0.686,-0.048,0.579,2.411,0.971,-3.862,48.291,-0.266
1733510158822,-0.645,-0.048,0.579,2.411,0.971,-3.862,48.291,-0.266
1733510158823,-0.645,-0.006,0.579,2.411,0.971,-3.862,48.291,-0.266
1733510158823,-0.645,-0.006,0.641,2.411,0.971,-3.862,48.291,-0.266
1733510158823,-0.645,-0.006,0.641,-1.024,0.971,-3.862,48.291,-0.266
1733510158823,-0.645,-0.006,0.641,-1.024,-6.693,-3.862,48.291,-0.266
1733510158823,-0.645,-0.006,0.641,-1.024,-6.693,1.879,48.291,-0.266
1733510158840,-0.645,-0.006,0.641,-1.024,-6.693,1.879,48.321,-0.266
1733510158846,-0.645,-0.006,0.641,-1.024,-6.693,1.879,48.321,-0.128
1733510158847,-0.671,-0.006,0.641,-1.024,-6.693,1.879,48.321,-0.128
1733510158847,-0.671,0.042,0.641,-1.024,-6.693,1.879,48.321,-0.128
1733510158847,-0.671,0.042,0.604,-1.024,-6.693,1.879,48.321,-0.128
1733510158847,-0.671,0.042,0.604,-4.734,-6.693,1.879,48.321,-0.128
1733510158848,-0.671,0.042,0.604,-4.734,-1.884,1.879,48.321,-0.128
1733510158848,-0.671,0.042,0.604,-4.734,-1.884,2.505,48.321,-0.128
1733510158860,-0.671,0.042,0.604,-4.734,-1.884,2.505,48.576,-0.128
1733510158860,-0.671,0.042,0.604,-4.734,-1.884,2.505,48.576,-0.403
1733510158861,-0.684,0.042,0.604,-4.734,-1.884,2.505,48.576,-0.403
1733510158861,-0.684,-0.024,0.604,-4.734,-1.884,2.505,48.576,-0.403
1733510158862,-0.684,-0.024,0.59,-4.734,-1.884,2.505,48.576,-0.403
1733510158862,-0.684,-0.024,0.59,-5.375,-1.884,2.505,48.576,-0.403
1733510158862,-0.684,-0.024,0.59,-5.375,2.025,2.505,48.576,-0.403
1733510158862,-0.684,-0.024,0.59,-5.375,2.025,4.871,48.576,-0.403
1733510158885,-0.684,-0.024,0.59,-5.375,2.025,4.871,48.54,-0.403
1733510158887,-0.684,-0.024,0.59,-5.375,2.025,4.871,48.54,-0.27
1733510158892,-0.651,-0.024,0.59,-5.375,2.025,4.871,48.54,-0.27
1733510158894,-0.651,0.005,0.59,-5.375,2.025,4.871,48.54,-0.27
1733510158894,-0.651,0.005,0.616,-5.375,2.025,4.871,48.54,-0.27
1733510158908,-0.651,0.005,0.616,-0.001,2.025,4.871,48.54,-0.27
1733510158908,-0.651,0.005,0.616,-0.001,-5.212,4.871,48.54,-0.27
1733510158908,-0.651,0.005,0.616,-0.001,-5.212,-0.549,48.54,-0.27
1733510158909,-0.651,0.005,0.616,-0.001,-5.212,-0.549,48.079,-0.27
1733510158909,-0.651,0.005,0.616,-0.001,-5.212,-0.549,48.079,-0.378
1733510158912,-0.661,0.005,0.616,-0.001,-5.212,-0.549,48.079,-0.378
1733510158912,-0.661,0.023,0.616,-0.001,-5.212,-0.549,48.079,-0.378
1733510158913,-0.661,0.023,0.622,-0.001,-5.212,-0.549,48.079,-0.378
1733510158913,-0.661,0.023,0.622,-4.276,-5.212,-0.549,48.079,-0.378
1733510158914,-0.661,0.023,0.622,-4.276,-19.517,-0.549,48.079,-0.378
1733510158915,-0.661,0.023,0.622,-4.276,-19.517,4.78,48.079,-0.378
1733510158935,-0.661,0.023,0.622,-4.276,-19.517,4.78,47.672,-0.378
1733510158936,-0.661,0.023,0.622,-4.276,-19.517,4.78,47.672,-0.139
1733510158937,-0.672,0.023,0.622,-4.276,-19.517,4.78,47.672,-0.139
1733510158937,-0.672,-0.033,0.622,-4.276,-19.517,4.78,47.672,-0.139
1733510158937,-0.672,-0.033,0.599,-4.276,-19.517,4.78,47.672,-0.139
1733510158941,-0.672,-0.033,0.599,3.129,-19.517,4.78,47.672,-0.139
1733510158941,-0.672,-0.033,0.599,3.129,-23.166,4.78,47.672,-0.139
1733510158941,-0.672,-0.033,0.599,3.129,-23.166,-5.633,47.672,-0.139
1733510158961,-0.672,-0.033,0.599,3.129,-23.166,-5.633,47.073,-0.139
1733510158961,-0.672,-0.033,0.599,3.129,-23.166,-5.633,47.073,-0.06
1733510158965,-0.642,-0.033,0.599,3.129,-23.166,-5.633,47.073,-0.06
1733510158966,-0.642,-0.015,0.599,3.129,-23.166,-5.633,47.073,-0.06
1733510158966,-0.642,-0.015,0.646,3.129,-23.166,-5.633,47.073,-0.06
1733510158966,-0.642,-0.015,0.646,4.884,-23.166,-5.633,47.073,-0.06
1733510158967,-0.642,-0.015,0.646,4.884,-28.632,-5.633,47.073,-0.06
1733510158967,-0.642,-0.015,0.646,4.884,-28.632,-7.663,47.073,-0.06
1733510158984,-0.642,-0.015,0.646,4.884,-28.632,-7.663,46.55,-0.06
1733510158986,-0.642,-0.015,0.646,4.884,-28.632,-7.663,46.55,0.075
1733510158987,-0.669,-0.015,0.646,4.884,-28.632,-7.663,46.55,0.075
1733510158988,-0.669,0.054,0.646,4.884,-28.632,-7.663,46.55,0.075
1733510158996,-0.669,0.054,0.597,4.884,-28.632,-7.663,46.55,0.075
1733510158997,-0.669,0.054,0.597,5.163,-28.632,-7.663,46.55,0.075
1733510158998,-0.669,0.054,0.597,5.163,-23.821,-7.663,46.55,0.075
1733510158998,-0.669,0.054,0.597,5.163,-23.821,-8.608,46.55,0.075
1733510159008,-0.669,0.054,0.597,5.163,-23.821,-8.608,46.421,0.075
1733510159009,-0.669,0.054,0.597,5.163,-23.821,-8.608,46.421,0.135
1733510159013,-0.667,0.054,0.597,5.163,-23.821,-8.608,46.421,0.135
1733510159015,-0.667,-0.055,0.597,5.163,-23.821,-8.608,46.421,0.135
1733510159015,-0.667,-0.055,0.598,5.163,-23.821,-8.608,46.421,0.135
1733510159016,-0.667,-0.055,0.598,1.622,-23.821,-8.608,46.421,0.135
1733510159016,-0.667,-0.055,0.598,1.622,-16.876,-8.608,46.421,0.135
1733510159016,-0.667,-0.055,0.598,1.622,-16.876,-1.695,46.421,0.135
1733510159048,-0.667,-0.055,0.598,1.622,-16.876,-1.695,45.998,0.135
1733510159049,-0.667,-0.055,0.598,1.622,-16.876,-1.695,45.998,0.014
1733510159049,-0.661,-0.055,0.598,1.622,-16.876,-1.695,45.998,0.014
1733510159049,-0.661,0.067,0.598,1.622,-16.876,-1.695,45.998,0.014
1733510159050,-0.661,0.067,0.594,1.622,-16.876,-1.695,45.998,0.014
1733510159051,-0.661,0.067,0.594,-9.543,-16.876,-1.695,45.998,0.014
1733510159051,-0.661,0.067,0.594,-9.543,-21.716,-1.695,45.998,0.014
1733510159051,-0.661,0.067,0.594,-9.543,-21.716,12.047,45.998,0.014
1733510159058,-0.661,0.067,0.594,-9.543,-21.716,12.047,45.849,0.014
1733510159059,-0.661,0.067,0.594,-9.543,-21.716,12.047,45.849,0.124
1733510159063,-0.659,0.067,0.594,-9.543,-21.716,12.047,45.849,0.124
1733510159063,-0.659,-0.036,0.594,-9.543,-21.716,12.047,45.849,0.124
1733510159063,-0.659,-0.036,0.627,-9.543,-21.716,12.047,45.849,0.124
1733510159065,-0.659,-0.036,0.627,-1.177,-21.716,12.047,45.849,0.124
1733510159066,-0.659,-0.036,0.627,-1.177,-12.678,12.047,45.849,0.124
1733510159066,-0.659,-0.036,0.627,-1.177,-12.678,-2.35,45.849,0.124
1733510159089,-0.659,-0.036,0.627,-1.177,-12.678,-2.35,45.626,0.124
1733510159089,-0.659,-0.036,0.627,-1.177,-12.678,-2.35,45.626,-0.214
1733510159090,-0.608,-0.036,0.627,-1.177,-12.678,-2.35,45.626,-0.214
1733510159091,-0.608,-0.006,0.627,-1.177,-12.678,-2.35,45.626,-0.214
1733510159093,-0.608,-0.006,0.659,-1.177,-12.678,-2.35,45.626,-0.214
1733510159094,-0.608,-0.006,0.659,-3.62,-12.678,-2.35,45.626,-0.214
1733510159094,-0.608,-0.006,0.659,-3.62,-15.853,-2.35,45.626,-0.214
1733510159095,-0.608,-0.006,0.659,-3.62,-15.853,4.413,45.626,-0.214
1733510159117,-0.608,-0.006,0.659,-3.62,-15.853,4.413,45.2,-0.214
1733510159117,-0.608,-0.006,0.659,-3.62,-15.853,4.413,45.2,-0.148
1733510159118,-0.617,-0.006,0.659,-3.62,-15.853,4.413,45.2,-0.148
1733510159118,-0.617,0.047,0.659,-3.62,-15.853,4.413,45.2,-0.148
1733510159119,-0.617,0.047,0.619,-3.62,-15.853,4.413,45.2,-0.148
1733510159120,-0.617,0.047,0.619,-8.948,-15.853,4.413,45.2,-0.148
1733510159120,-0.617,0.047,0.619,-8.948,-21.517,4.413,45.2,-0.148
1733510159120,-0.617,0.047,0.619,-8.948,-21.517,11.116,45.2,-0.148
1733510159133,-0.617,0.047,0.619,-8.948,-21.517,11.116,45.051,-0.148
1733510159134,-0.617,0.047,0.619,-8.948,-21.517,11.116,45.051,-0.159
1733510159143,-0.638,0.047,0.619,-8.948,-21.517,11.116,45.051,-0.159
1733510159144,-0.638,-0.057,0.619,-8.948,-21.517,11.116,45.051,-0.159
1733510159144,-0.638,-0.057,0.629,-8.948,-21.517,11.116,45.051,-0.159
1733510159145,-0.638,-0.057,0.629,-0.412,-21.517,11.116,45.051,-0.159
1733510159145,-0.638,-0.057,0.629,-0.412,-14.174,11.116,45.051,-0.159
1733510159145,-0.638,-0.057,0.629,-0.412,-14.174,-1.663,45.051,-0.159
1733510159161,-0.638,-0.057,0.629,-0.412,-14.174,-1.663,44.505,-0.159
1733510159162,-0.638,-0.057,0.629,-0.412,-14.174,-1.663,44.505,-0.378
1733510159164,-0.624,-0.057,0.629,-0.412,-14.174,-1.663,44.505,-0.378
1733510159164,-0.624,0.028,0.629,-0.412,-14.174,-1.663,44.505,-0.378
1733510159165,-0.624,0.028,0.646,-0.412,-14.174,-1.663,44.505,-0.378
1733510159166,-0.624,0.028,0.646,-6.123,-14.174,-1.663,44.505,-0.378
1733510159166,-0.624,0.028,0.646,-6.123,-31.348,-1.663,44.505,-0.378
1733510159166,-0.624,0.028,0.646,-6.123,-31.348,7.599,44.505,-0.378
1733510159185,-0.624,0.028,0.646,-6.123,-31.348,7.599,43.959,-0.378
1733510159186,-0.624,0.028,0.646,-6.123,-31.348,7.599,43.959,-0.152
1733510159188,-0.651,0.028,0.646,-6.123,-31.348,7.599,43.959,-0.152
1733510159188,-0.651,-0.04,0.646,-6.123,-31.348,7.599,43.959,-0.152
1733510159189,-0.651,-0.04,0.616,-6.123,-31.348,7.599,43.959,-0.152
1733510159189,-0.651,-0.04,0.616,-1.696,-31.348,7.599,43.959,-0.152
1733510159191,-0.651,-0.04,0.616,-1.696,-28.098,7.599,43.959,-0.152
1733510159191,-0.651,-0.04,0.616,-1.696,-28.098,-1.098,43.959,-0.152
1733510159211,-0.651,-0.04,0.616,-1.696,-28.098,-1.098,43.523,-0.152
1733510159213,-0.651,-0.04,0.616,-1.696,-28.098,-1.098,43.523,-0.402
1733510159214,-0.595,-0.04,0.616,-1.696,-28.098,-1.098,43.523,-0.402
1733510159215,-0.595,0.046,0.616,-1.696,-28.098,-1.098,43.523,-0.402
1733510159215,-0.595,0.046,0.676,-1.696,-28.098,-1.098,43.523,-0.402
1733510159215,-0.595,0.046,0.676,-4.994,-28.098,-1.098,43.523,-0.402
1733510159215,-0.595,0.046,0.676,-4.994,-30.83,-1.098,43.523,-0.402
1733510159216,-0.595,0.046,0.676,-4.994,-30.83,3.986,43.523,-0.402
1733510159234,-0.595,0.046,0.676,-4.994,-30.83,3.986,42.997,-0.402
1733510159234,-0.595,0.046,0.676,-4.994,-30.83,3.986,42.997,-0.323
1733510159252,-0.637,0.046,0.676,-4.994,-30.83,3.986,42.997,-0.323
1733510159253,-0.637,-0.014,0.676,-4.994,-30.83,3.986,42.997,-0.323
1733510159253,-0.637,-0.014,0.637,-4.994,-30.83,3.986,42.997,-0.323
1733510159254,-0.637,-0.014,0.637,-3.024,-30.83,3.986,42.997,-0.323
1733510159254,-0.637,-0.014,0.637,-3.024,-27.395,3.986,42.997,-0.323
1733510159254,-0.637,-0.014,0.637,-3.024,-27.395,0.841,42.997,-0.323
1733510159275,-0.637,-0.014,0.637,-3.024,-27.395,0.841,42.589,-0.323
1733510159278,-0.637,-0.014,0.637,-3.024,-27.395,0.841,42.589,-0.428
1733510159278,-0.598,-0.014,0.637,-3.024,-27.395,0.841,42.589,-0.428
1733510159278,-0.598,0.017,0.637,-3.024,-27.395,0.841,42.589,-0.428
1733510159278,-0.598,0.017,0.67,-3.024,-27.395,0.841,42.589,-0.428
1733510159278,-0.598,0.017,0.67,-5.757,-27.395,0.841,42.589,-0.428
1733510159278,-0.598,0.017,0.67,-5.757,-23.731,0.841,42.589,-0.428
1733510159278,-0.598,0.017,0.67,-5.757,-23.731,6.184,42.589,-0.428
1733510159285,-0.598,0.017,0.67,-5.757,-23.731,6.184,42.293,-0.428
1733510159285,-0.598,0.017,0.67,-5.757,-23.731,6.184,42.293,-0.364
1733510159287,-0.629,0.017,0.67,-5.757,-23.731,6.184,42.293,-0.364
1733510159287,-0.629,-0.039,0.67,-5.757,-23.731,6.184,42.293,-0.364
1733510159289,-0.629,-0.039,0.643,-5.757,-23.731,6.184,42.293,-0.364
1733510159289,-0.629,-0.039,0.643,-1.39,-23.731,6.184,42.293,-0.364
1733510159290,-0.629,-0.039,0.643,-1.39,-20.283,6.184,42.293,-0.364
1733510159290,-0.629,-0.039,0.643,-1.39,-20.283,-0.198,42.293,-0.364
1733510159311,-0.629,-0.039,0.643,-1.39,-20.283,-0.198,42.249,-0.364
1733510159311,-0.629,-0.039,0.643,-1.39,-20.283,-0.198,42.249,-0.501
1733510159315,-0.598,-0.039,0.643,-1.39,-20.283,-0.198,42.249,-0.501
1733510159315,-0.598,0.018,0.643,-1.39,-20.283,-0.198,42.249,-0.501
1733510159315,-0.598,0.018,0.662,-1.39,-20.283,-0.198,42.249,-0.501
1733510159316,-0.598,0.018,0.662,-6.35,-20.283,-0.198,42.249,-0.501
1733510159316,-0.598,0.018,0.662,-6.35,-14.7,-0.198,42.249,-0.501
1733510159316,-0.598,0.018,0.662,-6.35,-14.7,8.198,42.249,-0.501
1733510159335,-0.598,0.018,0.662,-6.35,-14.7,8.198,41.836,-0.501
1733510159335,-0.598,0.018,0.662,-6.35,-14.7,8.198,41.836,-0.264
1733510159336,-0.622,0.018,0.662,-6.35,-14.7,8.198,41.836,-0.264
1733510159337,-0.622,-0.031,0.662,-6.35,-14.7,8.198,41.836,-0.264
1733510159337,-0.622,-0.031,0.649,-6.35,-14.7,8.198,41.836,-0.264
1733510159338,-0.622,-0.031,0.649,1.678,-14.7,8.198,41.836,-0.264
1733510159339,-0.622,-0.031,0.649,1.678,-21.441,8.198,41.836,-0.264
1733510159339,-0.622,-0.031,0.649,1.678,-21.441,-5.739,41.836,-0.264
1733510159362,-0.622,-0.031,0.649,1.678,-21.441,-5.739,41.903,-0.264
1733510159362,-0.622,-0.031,0.649,1.678,-21.441,-5.739,41.903,-0.517
1733510159366,-0.617,-0.031,0.649,1.678,-21.441,-5.739,41.903,-0.517
1733510159367,-0.617,0.009,0.649,1.678,-21.441,-5.739,41.903,-0.517
1733510159367,-0.617,0.009,0.651,1.678,-21.441,-5.739,41.903,-0.517
1733510159367,-0.617,0.009,0.651,-0.917,-21.441,-5.739,41.903,-0.517
1733510159367,-0.617,0.009,0.651,-0.917,-14.891,-5.739,41.903,-0.517
1733510159368,-0.617,0.009,0.651,-0.917,-14.891,2.077,41.903,-0.517
1733510159388,-0.617,0.009,0.651,-0.917,-14.891,2.077,41.555,-0.517
1733510159388,-0.617,0.009,0.651,-0.917,-14.891,2.077,41.555,-0.237
1733510159390,-0.569,0.009,0.651,-0.917,-14.891,2.077,41.555,-0.237
1733510159391,-0.569,0.042,0.651,-0.917,-14.891,2.077,41.555,-0.237
1733510159391,-0.569,0.042,0.684,-0.917,-14.891,2.077,41.555,-0.237
1733510159392,-0.569,0.042,0.684,-2.49,-14.891,2.077,41.555,-0.237
1733510159392,-0.569,0.042,0.684,-2.49,-17.991,2.077,41.555,-0.237
1733510159392,-0.569,0.042,0.684,-2.49,-17.991,1.742,41.555,-0.237
1733510159415,-0.569,0.042,0.684,-2.49,-17.991,1.742,41.194,-0.237
1733510159416,-0.569,0.042,0.684,-2.49,-17.991,1.742,41.194,-0.26
1733510159416,-0.606,0.042,0.684,-2.49,-17.991,1.742,41.194,-0.26
1733510159417,-0.606,-0.086,0.684,-2.49,-17.991,1.742,41.194,-0.26
1733510159417,-0.606,-0.086,0.655,-2.49,-17.991,1.742,41.194,-0.26
1733510159417,-0.606,-0.086,0.655,2.121,-17.991,1.742,41.194,-0.26
1733510159419,-0.606,-0.086,0.655,2.121,-21.716,1.742,41.194,-0.26
1733510159419,-0.606,-0.086,0.655,2.121,-21.716,-4.961,41.194,-0.26
1733510159434,-0.606,-0.086,0.655,2.121,-21.716,-4.961,40.858,-0.26
1733510159434,-0.606,-0.086,0.655,2.121,-21.716,-4.961,40.858,-0.395
1733510159436,-0.566,-0.086,0.655,2.121,-21.716,-4.961,40.858,-0.395
1733510159437,-0.566,0.028,0.655,2.121,-21.716,-4.961,40.858,-0.395
1733510159437,-0.566,0.028,0.672,2.121,-21.716,-4.961,40.858,-0.395
1733510159440,-0.566,0.028,0.672,-4.826,-21.716,-4.961,40.858,-0.395
1733510159441,-0.566,0.028,0.672,-4.826,-23.013,-4.961,40.858,-0.395
1733510159441,-0.566,0.028,0.672,-4.826,-23.013,7.772,40.858,-0.395
1733510159457,-0.566,0.028,0.672,-4.826,-23.013,7.772,40.203,-0.395
1733510159458,-0.566,0.028,0.672,-4.826,-23.013,7.772,40.203,-0.075
1733510159462,-0.598,0.028,0.672,-4.826,-23.013,7.772,40.203,-0.075
1733510159462,-0.598,0.007,0.672,-4.826,-23.013,7.772,40.203,-0.075
1733510159463,-0.598,0.007,0.686,-4.826,-23.013,7.772,40.203,-0.075
1733510159467,-0.598,0.007,0.686,0.014,-23.013,7.772,40.203,-0.075
1733510159468,-0.598,0.007,0.686,0.014,-31.594,7.772,40.203,-0.075
1733510159468,-0.598,0.007,0.686,0.014,-31.594,-5.694,40.203,-0.075
1733510159484,-0.598,0.007,0.686,0.014,-31.594,-5.694,40.055,-0.075
1733510159485,-0.598,0.007,0.686,0.014,-31.594,-5.694,40.055,-0.611
1733510159487,-0.585,0.007,0.686,0.014,-31.594,-5.694,40.055,-0.611
1733510159488,-0.585,0.022,0.686,0.014,-31.594,-5.694,40.055,-0.611
1733510159488,-0.585,0.022,0.687,0.014,-31.594,-5.694,40.055,-0.611
1733510159490,-0.585,0.022,0.687,-6.734,-31.594,-5.694,40.055,-0.611
1733510159491,-0.585,0.022,0.687,-6.734,-22.922,-5.694,40.055,-0.611
1733510159491,-0.585,0.022,0.687,-6.734,-22.922,12.397,40.055,-0.611
1733510159509,-0.585,0.022,0.687,-6.734,-22.922,12.397,39.602,-0.611
1733510159510,-0.585,0.022,0.687,-6.734,-22.922,12.397,39.602,-0.116
1733510159515,-0.603,0.022,0.687,-6.734,-22.922,12.397,39.602,-0.116
1733510159516,-0.603,0.018,0.687,-6.734,-22.922,12.397,39.602,-0.116
1733510159516,-0.603,0.018,0.674,-6.734,-22.922,12.397,39.602,-0.116
1733510159517,-0.603,0.018,0.674,-0.093,-22.922,12.397,39.602,-0.116
1733510159517,-0.603,0.018,0.674,-0.093,-23.41,12.397,39.602,-0.116
1733510159517,-0.603,0.018,0.674,-0.093,-23.41,-4.273,39.602,-0.116
1733510159536,-0.603,0.018,0.674,-0.093,-23.41,-4.273,39.529,-0.116
1733510159537,-0.603,0.018,0.674,-0.093,-23.41,-4.273,39.529,-0.578
1733510159537,-0.575,0.018,0.674,-0.093,-23.41,-4.273,39.529,-0.578
1733510159537,-0.575,-0.036,0.674,-0.093,-23.41,-4.273,39.529,-0.578
1733510159540,-0.575,-0.036,0.679,-0.093,-23.41,-4.273,39.529,-0.578
1733510159541,-0.575,-0.036,0.679,-5.803,-23.41,-4.273,39.529,-0.578
1733510159541,-0.575,-0.036,0.679,-5.803,-16.571,-4.273,39.529,-0.578
1733510159542,-0.575,-0.036,0.679,-5.803,-16.571,9.726,39.529,-0.578
1733510159562,-0.575,-0.036,0.679,-5.803,-16.571,9.726,39.298,-0.578
1733510159563,-0.575,-0.036,0.679,-5.803,-16.571,9.726,39.298,-0.171
1733510159564,-0.572,-0.036,0.679,-5.803,-16.571,9.726,39.298,-0.171
1733510159565,-0.572,0.053,0.679,-5.803,-16.571,9.726,39.298,-0.171
1733510159565,-0.572,0.053,0.71,-5.803,-16.571,9.726,39.298,-0.171
1733510159566,-0.572,0.053,0.71,-0.612,-16.571,9.726,39.298,-0.171
1733510159566,-0.572,0.053,0.71,-0.612,-16.861,9.726,39.298,-0.171
1733510159567,-0.572,0.053,0.71,-0.612,-16.861,-3.266,39.298,-0.171
1733510159584,-0.572,0.053,0.71,-0.612,-16.861,-3.266,39.48,-0.171
1733510159584,-0.572,0.053,0.71,-0.612,-16.861,-3.266,39.48,-0.597
1733510159590,-0.597,0.053,0.71,-0.612,-16.861,-3.266,39.48,-0.597
1733510159590,-0.597,-0.038,0.71,-0.612,-16.861,-3.266,39.48,-0.597
1733510159590,-0.597,-0.038,0.653,-0.612,-16.861,-3.266,39.48,-0.597
1733510159590,-0.597,-0.038,0.653,-3.864,-16.861,-3.266,39.48,-0.597
1733510159590,-0.597,-0.038,0.653,-3.864,-11.273,-3.266,39.48,-0.597
1733510159590,-0.597,-0.038,0.653,-3.864,-11.273,5.665,39.48,-0.597
1733510159608,-0.597,-0.038,0.653,-3.864,-11.273,5.665,39.353,-0.597
1733510159609,-0.597,-0.038,0.653,-3.864,-11.273,5.665,39.353,-0.376
1733510159614,-0.555,-0.038,0.653,-3.864,-11.273,5.665,39.353,-0.376
1733510159614,-0.555,0.077,0.653,-3.864,-11.273,5.665,39.353,-0.376
1733510159615,-0.555,0.077,0.687,-3.864,-11.273,5.665,39.353,-0.376
1733510159619,-0.555,0.077,0.687,-8.169,-11.273,5.665,39.353,-0.376
1733510159619,-0.555,0.077,0.687,-8.169,-10.342,5.665,39.353,-0.376
1733510159619,-0.555,0.077,0.687,-8.169,-10.342,10.978,39.353,-0.376
1733510159634,-0.555,0.077,0.687,-8.169,-10.342,10.978,39.184,-0.376
1733510159635,-0.555,0.077,0.687,-8.169,-10.342,10.978,39.184,-0.466
1733510159639,-0.598,0.077,0.687,-8.169,-10.342,10.978,39.184,-0.466
1733510159640,-0.598,-0.077,0.687,-8.169,-10.342,10.978,39.184,-0.466
1733510159640,-0.598,-0.077,0.667,-8.169,-10.342,10.978,39.184,-0.466
1733510159640,-0.598,-0.077,0.667,-1.956,-10.342,10.978,39.184,-0.466
1733510159640,-0.598,-0.077,0.667,-1.956,-16.239,10.978,39.184,-0.466
1733510159641,-0.598,-0.077,0.667,-1.956,-16.239,1.527,39.184,-0.466
1733510159659,-0.598,-0.077,0.667,-1.956,-16.239,1.527,39.173,-0.466
1733510159659,-0.598,-0.077,0.667,-1.956,-16.239,1.527,39.173,-0.762
1733510159663,-0.562,-0.077,0.667,-1.956,-16.239,1.527,39.173,-0.762
1733510159664,-0.562,0.013,0.667,-1.956,-16.239,1.527,39.173,-0.762
1733510159665,-0.562,0.013,0.706,-1.956,-16.239,1.527,39.173,-0.762
1733510159665,-0.562,0.013,0.706,-6.439,-16.239,1.527,39.173,-0.762
1733510159665,-0.562,0.013,0.706,-6.439,-13.031,1.527,39.173,-0.762
1733510159666,-0.562,0.013,0.706,-6.439,-13.031,11.143,39.173,-0.762
1733510159684,-0.562,0.013,0.706,-6.439,-13.031,11.143,39.132,-0.762
1733510159685,-0.562,0.013,0.706,-6.439,-13.031,11.143,39.132,-0.413
1733510159689,-0.57,0.013,0.706,-6.439,-13.031,11.143,39.132,-0.413
1733510159690,-0.57,0.032,0.706,-6.439,-13.031,11.143,39.132,-0.413
1733510159690,-0.57,0.032,0.678,-6.439,-13.031,11.143,39.132,-0.413
1733510159690,-0.57,0.032,0.678,-3.024,-13.031,11.143,39.132,-0.413
1733510159691,-0.57,0.032,0.678,-3.024,-9.716,11.143,39.132,-0.413
1733510159691,-0.57,0.032,0.678,-3.024,-9.716,-1.189,39.132,-0.413
1733510159718,-0.57,0.032,0.678,-3.024,-9.716,-1.189,39.134,-0.413
1733510159718,-0.57,0.032,0.678,-3.024,-9.716,-1.189,39.134,-0.649
1733510159719,-0.587,0.032,0.678,-3.024,-9.716,-1.189,39.134,-0.649
1733510159719,-0.587,-0.018,0.678,-3.024,-9.716,-1.189,39.134,-0.649
1733510159719,-0.587,-0.018,0.673,-3.024,-9.716,-1.189,39.134,-0.649
1733510159719,-0.587,-0.018,0.673,-2.795,-9.716,-1.189,39.134,-0.649
1733510159720,-0.587,-0.018,0.673,-2.795,-14.937,-1.189,39.134,-0.649
1733510159720,-0.587,-0.018,0.673,-2.795,-14.937,3.848,39.134,-0.649
1733510159735,-0.587,-0.018,0.673,-2.795,-14.937,3.848,38.987,-0.649
1733510159735,-0.587,-0.018,0.673,-2.795,-14.937,3.848,38.987,-0.701
1733510159738,-0.564,-0.018,0.673,-2.795,-14.937,3.848,38.987,-0.701
1733510159738,-0.564,0.09,0.673,-2.795,-14.937,3.848,38.987,-0.701
1733510159739,-0.564,0.09,0.699,-2.795,-14.937,3.848,38.987,-0.701
1733510159739,-0.564,0.09,0.699,-9.574,-14.937,3.848,38.987,-0.701
1733510159741,-0.564,0.09,0.699,-9.574,-16.372,3.848,38.987,-0.701
1733510159741,-0.564,0.09,0.699,-9.574,-16.372,14.963,38.987,-0.701
1733510159757,-0.564,0.09,0.699,-9.574,-16.372,14.963,38.642,-0.701
1733510159758,-0.564,0.09,0.699,-9.574,-16.372,14.963,38.642,-0.464
1733510159769,-0.593,0.09,0.699,-9.574,-16.372,14.963,38.642,-0.464
1733510159770,-0.593,-0.022,0.699,-9.574,-16.372,14.963,38.642,-0.464
1733510159771,-0.593,-0.022,0.67,-9.574,-16.372,14.963,38.642,-0.464
1733510159772,-0.593,-0.022,0.67,-3.162,-16.372,14.963,38.642,-0.464
1733510159772,-0.593,-0.022,0.67,-3.162,-18.555,14.963,38.642,-0.464
1733510159772,-0.593,-0.022,0.67,-3.162,-18.555,-0.411,38.642,-0.464
1733510159784,-0.593,-0.022,0.67,-3.162,-18.555,-0.411,38.195,-0.464
1733510159785,-0.593,-0.022,0.67,-3.162,-18.555,-0.411,38.195,-0.676
1733510159788,-0.545,-0.022,0.67,-3.162,-18.555,-0.411,38.195,-0.676
1733510159789,-0.545,-0.015,0.67,-3.162,-18.555,-0.411,38.195,-0.676
1733510159789,-0.545,-0.015,0.693,-3.162,-18.555,-0.411,38.195,-0.676
1733510159790,-0.545,-0.015,0.693,0.227,-18.555,-0.411,38.195,-0.676
1733510159790,-0.545,-0.015,0.693,0.227,-24.684,-0.411,38.195,-0.676
1733510159791,-0.545,-0.015,0.693,0.227,-24.684,-0.526,38.195,-0.676
1733510159808,-0.545,-0.015,0.693,0.227,-24.684,-0.526,37.575,-0.676
1733510159808,-0.545,-0.015,0.693,0.227,-24.684,-0.526,37.575,-0.596
1733510159817,-0.541,-0.015,0.693,0.227,-24.684,-0.526,37.575,-0.596
1733510159817,-0.541,0.037,0.693,0.227,-24.684,-0.526,37.575,-0.596
1733510159818,-0.541,0.037,0.721,0.227,-24.684,-0.526,37.575,-0.596
1733510159818,-0.541,0.037,0.721,-1.101,-24.684,-0.526,37.575,-0.596
1733510159819,-0.541,0.037,0.721,-1.101,-31.865,-0.526,37.575,-0.596
1733510159819,-0.541,0.037,0.721,-1.101,-31.865,-0.92,37.575,-0.596
1733510159834,-0.541,0.037,0.721,-1.101,-31.865,-0.92,37.164,-0.596
1733510159835,-0.541,0.037,0.721,-1.101,-31.865,-0.92,37.164,-0.424
1733510159848,-0.55,0.037,0.721,-1.101,-31.865,-0.92,37.164,-0.424
1733510159848,-0.55,-0.036,0.721,-1.101,-31.865,-0.92,37.164,-0.424
1733510159848,-0.55,-0.036,0.706,-1.101,-31.865,-0.92,37.164,-0.424
1733510159848,-0.55,-0.036,0.706,0.732,-31.865,-0.92,37.164,-0.424
1733510159848,-0.55,-0.036,0.706,0.732,-25.227,-0.92,37.164,-0.424
1733510159848,-0.55,-0.036,0.706,0.732,-25.227,-5.968,37.164,-0.424
1733510159858,-0.55,-0.036,0.706,0.732,-25.227,-5.968,36.649,-0.424
1733510159859,-0.55,-0.036,0.706,0.732,-25.227,-5.968,36.649,-0.684
1733510159862,-0.541,-0.036,0.706,0.732,-25.227,-5.968,36.649,-0.684
1733510159862,-0.541,-0.033,0.706,0.732,-25.227,-5.968,36.649,-0.684
1733510159862,-0.541,-0.033,0.739,0.732,-25.227,-5.968,36.649,-0.684
1733510159865,-0.541,-0.033,0.739,-4.612,-25.227,-5.968,36.649,-0.684
1733510159865,-0.541,-0.033,0.739,-4.612,-30.54,-5.968,36.649,-0.684
1733510159865,-0.541,-0.033,0.739,-4.612,-30.54,7.359,36.649,-0.684
1733510159884,-0.541,-0.033,0.739,-4.612,-30.54,7.359,36.449,-0.684
1733510159884,-0.541,-0.033,0.739,-4.612,-30.54,7.359,36.449,-0.436
1733510159888,-0.536,-0.033,0.739,-4.612,-30.54,7.359,36.449,-0.436
1733510159888,-0.536,0.028,0.739,-4.612,-30.54,7.359,36.449,-0.436
1733510159889,-0.536,0.028,0.698,-4.612,-30.54,7.359,36.449,-0.436
1733510159889,-0.536,0.028,0.698,-3.91,-30.54,7.359,36.449,-0.436
1733510159889,-0.536,0.028,0.698,-3.91,-14.937,7.359,36.449,-0.436
1733510159890,-0.536,0.028,0.698,-3.91,-14.937,2.001,36.449,-0.436
1733510159909,-0.536,0.028,0.698,-3.91,-14.937,2.001,36.409,-0.436
1733510159909,-0.536,0.028,0.698,-3.91,-14.937,2.001,36.409,-0.596
1733510159913,-0.53,0.028,0.698,-3.91,-14.937,2.001,36.409,-0.596
1733510159914,-0.53,-0.06,0.698,-3.91,-14.937,2.001,36.409,-0.596
1733510159915,-0.53,-0.06,0.718,-3.91,-14.937,2.001,36.409,-0.596
1733510159915,-0.53,-0.06,0.718,-1.757,-14.937,2.001,36.409,-0.596
1733510159915,-0.53,-0.06,0.718,-1.757,-11.823,2.001,36.409,-0.596
1733510159915,-0.53,-0.06,0.718,-1.757,-11.823,0.734,36.409,-0.596
1733510159934,-0.53,-0.06,0.718,-1.757,-11.823,0.734,36.231,-0.596
1733510159935,-0.53,-0.06,0.718,-1.757,-11.823,0.734,36.231,-0.697
1733510159937,-0.514,-0.06,0.718,-1.757,-11.823,0.734,36.231,-0.697
1733510159937,-0.514,0.065,0.718,-1.757,-11.823,0.734,36.231,-0.697
1733510159938,-0.514,0.065,0.726,-1.757,-11.823,0.734,36.231,-0.697
1733510159940,-0.514,0.065,0.726,-5.768,-11.823,0.734,36.231,-0.697
1733510159941,-0.514,0.065,0.726,-5.768,-14.585,0.734,36.231,-0.697
1733510159941,-0.514,0.065,0.726,-5.768,-14.585,7.305,36.231,-0.697
1733510159962,-0.514,0.065,0.726,-5.768,-14.585,7.305,36.031,-0.697
1733510159963,-0.514,0.065,0.726,-5.768,-14.585,7.305,36.031,-0.568
1733510159965,-0.536,0.065,0.726,-5.768,-14.585,7.305,36.031,-0.568
1733510159965,-0.536,-0.055,0.726,-5.768,-14.585,7.305,36.031,-0.568
1733510159965,-0.536,-0.055,0.715,-5.768,-14.585,7.305,36.031,-0.568
1733510159966,-0.536,-0.055,0.715,-1.222,-14.585,7.305,36.031,-0.568
1733510159966,-0.536,-0.055,0.715,-1.222,-14.785,7.305,36.031,-0.568
1733510159966,-0.536,-0.055,0.715,-1.222,-14.785,-1.518,36.031,-0.568
1733510159986,-0.536,-0.055,0.715,-1.222,-14.785,-1.518,36.173,-0.568
1733510159986,-0.536,-0.055,0.715,-1.222,-14.785,-1.518,36.173,-0.715
1733510159987,-0.528,-0.055,0.715,-1.222,-14.785,-1.518,36.173,-0.715
1733510159988,-0.528,0.028,0.715,-1.222,-14.785,-1.518,36.173,-0.715
1733510159988,-0.528,0.028,0.713,-1.222,-14.785,-1.518,36.173,-0.715
1733510159989,-0.528,0.028,0.713,-2.688,-14.785,-1.518,36.173,-0.715
1733510159989,-0.528,0.028,0.713,-2.688,-8.189,-1.518,36.173,-0.715
1733510159989,-0.528,0.028,0.713,-2.688,-8.189,4.108,36.173,-0.715
1733510160008,-0.528,0.028,0.713,-2.688,-8.189,4.108,35.733,-0.715
1733510160009,-0.528,0.028,0.713,-2.688,-8.189,4.108,35.733,-0.554
1733510160028,-0.458,0.028,0.713,-2.688,-8.189,4.108,35.733,-0.554
1733510160028,-0.458,-0.025,0.713,-2.688,-8.189,4.108,35.733,-0.554
1733510160029,-0.458,-0.025,0.766,-2.688,-8.189,4.108,35.733,-0.554
1733510160029,-0.458,-0.025,0.766,-0.429,-8.189,4.108,35.733,-0.554
1733510160029,-0.458,-0.025,0.766,-0.429,-23.379,4.108,35.733,-0.554
1733510160029,-0.458,-0.025,0.766,-0.429,-23.379,-2.151,35.733,-0.554
1733510160034,-0.458,-0.025,0.766,-0.429,-23.379,-2.151,34.983,-0.554
1733510160035,-0.458,-0.025,0.766,-0.429,-23.379,-2.151,34.983,-0.653
1733510160037,-0.524,-0.025,0.766,-0.429,-23.379,-2.151,34.983,-0.653
1733510160038,-0.524,-0.003,0.766,-0.429,-23.379,-2.151,34.983,-0.653
1733510160039,-0.524,-0.003,0.714,-0.429,-23.379,-2.151,34.983,-0.653
1733510160039,-0.524,-0.003,0.714,-1.314,-23.379,-2.151,34.983,-0.653
1733510160040,-0.524,-0.003,0.714,-1.314,-30.555,-2.151,34.983,-0.653
1733510160040,-0.524,-0.003,0.714,-1.314,-30.555,-0.426,34.983,-0.653
1733510160063,-0.524,-0.003,0.714,-1.314,-30.555,-0.426,35.107,-0.653
1733510160064,-0.524,-0.003,0.714,-1.314,-30.555,-0.426,35.107,-0.574
1733510160064,-0.511,-0.003,0.714,-1.314,-30.555,-0.426,35.107,-0.574
1733510160064,-0.511,-0.002,0.714,-1.314,-30.555,-0.426,35.107,-0.574
1733510160064,-0.511,-0.002,0.606,-1.314,-30.555,-0.426,35.107,-0.574
1733510160065,-0.511,-0.002,0.606,-2.261,-30.555,-0.426,35.107,-0.574
1733510160065,-0.511,-0.002,0.606,-2.261,-19.395,-0.426,35.107,-0.574
1733510160065,-0.511,-0.002,0.606,-2.261,-19.395,2.963,35.107,-0.574
1733510160093,-0.511,-0.002,0.606,-2.261,-19.395,2.963,33.963,-0.574
1733510160093,-0.511,-0.002,0.606,-2.261,-19.395,2.963,33.963,-0.365
1733510160094,-0.454,-0.002,0.606,-2.261,-19.395,2.963,33.963,-0.365
1733510160094,-0.454,-0.018,0.606,-2.261,-19.395,2.963,33.963,-0.365
1733510160094,-0.454,-0.018,0.781,-2.261,-19.395,2.963,33.963,-0.365
1733510160094,-0.454,-0.018,0.781,-1.406,-19.395,2.963,33.963,-0.365
1733510160094,-0.454,-0.018,0.781,-1.406,-46.723,2.963,33.963,-0.365
1733510160094,-0.454,-0.018,0.781,-1.406,-46.723,-0.915,33.963,-0.365
1733510160108,-0.454,-0.018,0.781,-1.406,-46.723,-0.915,30.815,-0.365
1733510160109,-0.454,-0.018,0.781,-1.406,-46.723,-0.915,30.815,-0.531
1733510160111,-0.009,-0.018,0.781,-1.406,-46.723,-0.915,30.815,-0.531
1733510160112,-0.009,0.036,0.781,-1.406,-46.723,-0.915,30.815,-0.531
1733510160113,-0.009,0.036,1.005,-1.406,-46.723,-0.915,30.815,-0.531
1733510160113,-0.009,0.036,1.005,-4.856,-46.723,-0.915,30.815,-0.531
1733510160113,-0.009,0.036,1.005,-4.856,-95.655,-0.915,30.815,-0.531
1733510160114,-0.009,0.036,1.005,-4.856,-95.655,2.138,30.815,-0.531
1733510160132,-0.009,0.036,1.005,-4.856,-95.655,2.138,25.586,-0.531
1733510160133,-0.009,0.036,1.005,-4.856,-95.655,2.138,25.586,-0.784
1733510160138,-0.353,0.036,1.005,-4.856,-95.655,2.138,25.586,-0.784
1733510160138,-0.353,-0.082,1.005,-4.856,-95.655,2.138,25.586,-0.784
1733510160139,-0.353,-0.082,0.824,-4.856,-95.655,2.138,25.586,-0.784
1733510160139,-0.353,-0.082,0.824,-4.046,-95.655,2.138,25.586,-0.784
1733510160139,-0.353,-0.082,0.824,-4.046,-197.836,2.138,25.586,-0.784
1733510160140,-0.353,-0.082,0.824,-4.046,-197.836,-9.938,25.586,-0.784
1733510160163,-0.353,-0.082,0.824,-4.046,-197.836,-9.938,20.425,-0.784
1733510160164,-0.353,-0.082,0.824,-4.046,-197.836,-9.938,20.425,-0.808
1733510160164,-0.305,-0.082,0.824,-4.046,-197.836,-9.938,20.425,-0.808
1733510160165,-0.305,-0.017,0.824,-4.046,-197.836,-9.938,20.425,-0.808
1733510160166,-0.305,-0.017,0.816,-4.046,-197.836,-9.938,20.425,-0.808
1733510160166,-0.305,-0.017,0.816,-5.131,-197.836,-9.938,20.425,-0.808
1733510160167,-0.305,-0.017,0.816,-5.131,-226.113,-9.938,20.425,-0.808
1733510160167,-0.305,-0.017,0.816,-5.131,-226.113,-12.594,20.425,-0.808
1733510160184,-0.305,-0.017,0.816,-5.131,-226.113,-12.594,15.695,-0.808
1733510160185,-0.305,-0.017,0.816,-5.131,-226.113,-12.594,15.695,-0.93
1733510160186,-0.42,-0.017,0.816,-5.131,-226.113,-12.594,15.695,-0.93
1733510160187,-0.42,-0.051,0.816,-5.131,-226.113,-12.594,15.695,-0.93
1733510160189,-0.42,-0.051,0.939,-5.131,-226.113,-12.594,15.695,-0.93
1733510160191,-0.42,-0.051,0.939,-1.62,-226.113,-12.594,15.695,-0.93
1733510160191,-0.42,-0.051,0.939,-1.62,-207.823,-12.594,15.695,-0.93
1733510160192,-0.42,-0.051,0.939,-1.62,-207.823,-19.923,15.695,-0.93
1733510160208,-0.42,-0.051,0.939,-1.62,-207.823,-19.923,13.377,-0.93
1733510160209,-0.42,-0.051,0.939,-1.62,-207.823,-19.923,13.377,-1.274
1733510160211,-0.39,-0.051,0.939,-1.62,-207.823,-19.923,13.377,-1.274
1733510160212,-0.39,-0.105,0.939,-1.62,-207.823,-19.923,13.377,-1.274
1733510160213,-0.39,-0.105,0.797,-1.62,-207.823,-19.923,13.377,-1.274
1733510160213,-0.39,-0.105,0.797,-0.78,-207.823,-19.923,13.377,-1.274
1733510160214,-0.39,-0.105,0.797,-0.78,-152.601,-19.923,13.377,-1.274
1733510160214,-0.39,-0.105,0.797,-0.78,-152.601,-3.877,13.377,-1.274
1733510160235,-0.39,-0.105,0.797,-0.78,-152.601,-3.877,12.213,-1.274
1733510160236,-0.39,-0.105,0.797,-0.78,-152.601,-3.877,12.213,-1.418
1733510160237,-0.353,-0.105,0.797,-0.78,-152.601,-3.877,12.213,-1.418
1733510160237,-0.353,0.021,0.797,-0.78,-152.601,-3.877,12.213,-1.418
1733510160238,-0.353,0.021,0.808,-0.78,-152.601,-3.877,12.213,-1.418
1733510160239,-0.353,0.021,0.808,-11.345,-152.601,-3.877,12.213,-1.418
1733510160240,-0.353,0.021,0.808,-11.345,-107.41,-3.877,12.213,-1.418
1733510160240,-0.353,0.021,0.808,-11.345,-107.41,32.566,12.213,-1.418
1733510160260,-0.353,0.021,0.808,-11.345,-107.41,32.566,11.297,-1.418
1733510160260,-0.353,0.021,0.808,-11.345,-107.41,32.566,11.297,-1.481
1733510160266,-0.244,0.021,0.808,-11.345,-107.41,32.566,11.297,-1.481
1733510160267,-0.244,-0.068,0.808,-11.345,-107.41,32.566,11.297,-1.481
1733510160268,-0.244,-0.068,0.826,-11.345,-107.41,32.566,11.297,-1.481
1733510160268,-0.244,-0.068,0.826,-15.787,-107.41,32.566,11.297,-1.481
1733510160269,-0.244,-0.068,0.826,-15.787,-86.418,32.566,11.297,-1.481
1733510160269,-0.244,-0.068,0.826,-15.787,-86.418,33.177,11.297,-1.481
1733510160291,-0.244,-0.068,0.826,-15.787,-86.418,33.177,10.415,-1.481
1733510160291,-0.244,-0.068,0.826,-15.787,-86.418,33.177,10.415,-1.871
1733510160291,-0.27,-0.068,0.826,-15.787,-86.418,33.177,10.415,-1.871
1733510160292,-0.27,0.001,0.826,-15.787,-86.418,33.177,10.415,-1.871
1733510160292,-0.27,0.001,0.854,-15.787,-86.418,33.177,10.415,-1.871
1733510160292,-0.27,0.001,0.854,-13.705,-86.418,33.177,10.415,-1.871
1733510160293,-0.27,0.001,0.854,-13.705,-88.172,33.177,10.415,-1.871
1733510160293,-0.27,0.001,0.854,-13.705,-88.172,31.6,10.415,-1.871
1733510160318,-0.27,0.001,0.854,-13.705,-88.172,31.6,10.307,-1.871
1733510160319,-0.27,0.001,0.854,-13.705,-88.172,31.6,10.307,-1.848
1733510160327,-0.294,0.001,0.854,-13.705,-88.172,31.6,10.307,-1.848
1733510160328,-0.294,-0.018,0.854,-13.705,-88.172,31.6,10.307,-1.848
1733510160328,-0.294,-0.018,0.864,-13.705,-88.172,31.6,10.307,-1.848
1733510160328,-0.294,-0.018,0.864,-5.367,-88.172,31.6,10.307,-1.848
1733510160328,-0.294,-0.018,0.864,-5.367,-63.774,31.6,10.307,-1.848
1733510160328,-0.294,-0.018,0.864,-5.367,-63.774,4.6,10.307,-1.848
1733510160335,-0.294,-0.018,0.864,-5.367,-63.774,4.6,10.413,-1.848
1733510160336,-0.294,-0.018,0.864,-5.367,-63.774,4.6,10.413,-1.891
1733510160337,-0.273,-0.018,0.864,-5.367,-63.774,4.6,10.413,-1.891
1733510160337,-0.273,0.024,0.864,-5.367,-63.774,4.6,10.413,-1.891
1733510160338,-0.273,0.024,0.82,-5.367,-63.774,4.6,10.413,-1.891
1733510160339,-0.273,0.024,0.82,-7.635,-63.774,4.6,10.413,-1.891
1733510160340,-0.273,0.024,0.82,-7.635,-52.418,4.6,10.413,-1.891
1733510160340,-0.273,0.024,0.82,-7.635,-52.418,16.474,10.413,-1.891
1733510160359,-0.273,0.024,0.82,-7.635,-52.418,16.474,10.344,-1.891
1733510160360,-0.273,0.024,0.82,-7.635,-52.418,16.474,10.344,-1.709
1733510160361,-0.234,0.024,0.82,-7.635,-52.418,16.474,10.344,-1.709
1733510160362,-0.234,-0.053,0.82,-7.635,-52.418,16.474,10.344,-1.709
1733510160362,-0.234,-0.053,0.858,-7.635,-52.418,16.474,10.344,-1.709
1733510160363,-0.234,-0.053,0.858,-3.558,-52.418,16.474,10.344,-1.709
1733510160363,-0.234,-0.053,0.858,-3.558,-58.311,16.474,10.344,-1.709
1733510160364,-0.234,-0.053,0.858,-3.558,-58.311,5.085,10.344,-1.709
1733510160385,-0.234,-0.053,0.858,-3.558,-58.311,5.085,10.207,-1.709
1733510160385,-0.234,-0.053,0.858,-3.558,-58.311,5.085,10.207,-1.775
1733510160391,-0.271,-0.053,0.858,-3.558,-58.311,5.085,10.207,-1.775
1733510160392,-0.271,-0.007,0.858,-3.558,-58.311,5.085,10.207,-1.775
1733510160392,-0.271,-0.007,0.827,-3.558,-58.311,5.085,10.207,-1.775
1733510160393,-0.271,-0.007,0.827,-1.36,-58.311,5.085,10.207,-1.775
1733510160393,-0.271,-0.007,0.827,-1.36,-54.464,5.085,10.207,-1.775
1733510160394,-0.271,-0.007,0.827,-1.36,-54.464,-3.19,10.207,-1.775
1733510160408,-0.271,-0.007,0.827,-1.36,-54.464,-3.19,10.232,-1.775
1733510160409,-0.271,-0.007,0.827,-1.36,-54.464,-3.19,10.232,-1.776
1733510160412,-0.177,-0.007,0.827,-1.36,-54.464,-3.19,10.232,-1.776
1733510160413,-0.177,-0.05,0.827,-1.36,-54.464,-3.19,10.232,-1.776
1733510160413,-0.177,-0.05,0.814,-1.36,-54.464,-3.19,10.232,-1.776
1733510160417,-0.177,-0.05,0.814,-2.734,-54.464,-3.19,10.232,-1.776
1733510160417,-0.177,-0.05,0.814,-2.734,-55.334,-3.19,10.232,-1.776
1733510160418,-0.177,-0.05,0.814,-2.734,-55.334,1.757,10.232,-1.776
1733510160437,-0.177,-0.05,0.814,-2.734,-55.334,1.757,9.734,-1.776
1733510160437,-0.177,-0.05,0.814,-2.734,-55.334,1.757,9.734,-1.593
1733510160438,-0.206,-0.05,0.814,-2.734,-55.334,1.757,9.734,-1.593
1733510160438,-0.206,-0.035,0.814,-2.734,-55.334,1.757,9.734,-1.593
1733510160439,-0.206,-0.035,0.872,-2.734,-55.334,1.757,9.734,-1.593
1733510160439,-0.206,-0.035,0.872,0.343,-55.334,1.757,9.734,-1.593
1733510160439,-0.206,-0.035,0.872,0.343,-64.655,1.757,9.734,-1.593
1733510160439,-0.206,-0.035,0.872,0.343,-64.655,-11.976,9.734,-1.593
1733510160458,-0.206,-0.035,0.872,0.343,-64.655,-11.976,9.088,-1.593
1733510160468,-0.206,-0.035,0.872,0.343,-64.655,-11.976,9.088,-1.704
1733510160468,-0.17,-0.035,0.872,0.343,-64.655,-11.976,9.088,-1.704
1733510160468,-0.17,-0.012,0.872,0.343,-64.655,-11.976,9.088,-1.704
1733510160468,-0.17,-0.012,0.879,0.343,-64.655,-11.976,9.088,-1.704
1733510160468,-0.17,-0.012,0.879,0.332,-64.655,-11.976,9.088,-1.704
1733510160469,-0.17,-0.012,0.879,0.332,-69.888,-11.976,9.088,-1.704
1733510160469,-0.17,-0.012,0.879,0.332,-69.888,-16.607,9.088,-1.704
1733510160484,-0.17,-0.012,0.879,0.332,-69.888,-16.607,8.269,-1.704
1733510160484,-0.17,-0.012,0.879,0.332,-69.888,-16.607,8.269,-1.625
1733510160495,-0.128,-0.012,0.879,0.332,-69.888,-16.607,8.269,-1.625
1733510160495,-0.128,-0.078,0.879,0.332,-69.888,-16.607,8.269,-1.625
1733510160496,-0.128,-0.078,0.849,0.332,-69.888,-16.607,8.269,-1.625
1733510160497,-0.128,-0.078,0.849,-1.329,-69.888,-16.607,8.269,-1.625
1733510160497,-0.128,-0.078,0.849,-1.329,-78.967,-16.607,8.269,-1.625
1733510160498,-0.128,-0.078,0.849,-1.329,-78.967,-12.564,8.269,-1.625
1733510160508,-0.128,-0.078,0.849,-1.329,-78.967,-12.564,6.991,-1.625
1733510160509,-0.128,-0.078,0.849,-1.329,-78.967,-12.564,6.991,-1.757
1733510160512,-0.133,-0.078,0.849,-1.329,-78.967,-12.564,6.991,-1.757
1733510160513,-0.133,0.006,0.849,-1.329,-78.967,-12.564,6.991,-1.757
1733510160513,-0.133,0.006,0.886,-1.329,-78.967,-12.564,6.991,-1.757
1733510160514,-0.133,0.006,0.886,-6.703,-78.967,-12.564,6.991,-1.757
1733510160514,-0.133,0.006,0.886,-6.703,-86.922,-12.564,6.991,-1.757
1733510160515,-0.133,0.006,0.886,-6.703,-86.922,12.168,6.991,-1.757
1733510160533,-0.133,0.006,0.886,-6.703,-86.922,12.168,6.334,-1.757
1733510160533,-0.133,0.006,0.886,-6.703,-86.922,12.168,6.334,-2.324
1733510160539,-0.252,0.006,0.886,-6.703,-86.922,12.168,6.334,-2.324
1733510160539,-0.252,-0.104,0.886,-6.703,-86.922,12.168,6.334,-2.324
1733510160540,-0.252,-0.104,0.86,-6.703,-86.922,12.168,6.334,-2.324
1733510160541,-0.252,-0.104,0.86,-6.154,-86.922,12.168,6.334,-2.324
1733510160541,-0.252,-0.104,0.86,-6.154,-73.136,12.168,6.334,-2.324
1733510160541,-0.252,-0.104,0.86,-6.154,-73.136,31.65,6.334,-2.324
1733510160560,-0.252,-0.104,0.86,-6.154,-73.136,31.65,5.614,-2.324
1733510160561,-0.252,-0.104,0.86,-6.154,-73.136,31.65,5.614,-1.491
1733510160565,-0.079,-0.104,0.86,-6.154,-73.136,31.65,5.614,-1.491
1733510160565,-0.079,0.166,0.86,-6.154,-73.136,31.65,5.614,-1.491
1733510160568,-0.079,0.166,0.912,-6.154,-73.136,31.65,5.614,-1.491
1733510160568,-0.079,0.166,0.912,-6.52,-73.136,31.65,5.614,-1.491
1733510160568,-0.079,0.166,0.912,-6.52,-68.678,31.65,5.614,-1.491
1733510160569,-0.079,0.166,0.912,-6.52,-68.678,6.597,5.614,-1.491
1733510160584,-0.079,0.166,0.912,-6.52,-68.678,6.597,4.481,-1.491
1733510160585,-0.079,0.166,0.912,-6.52,-68.678,6.597,4.481,-2.103
1733510160588,-0.122,0.166,0.912,-6.52,-68.678,6.597,4.481,-2.103
1733510160588,-0.122,-0.142,0.912,-6.52,-68.678,6.597,4.481,-2.103
1733510160589,-0.122,-0.142,0.859,-6.52,-68.678,6.597,4.481,-2.103
1733510160589,-0.122,-0.142,0.859,-5.342,-68.678,6.597,4.481,-2.103
1733510160590,-0.122,-0.142,0.859,-5.342,-79.84,6.597,4.481,-2.103
1733510160590,-0.122,-0.142,0.859,-5.342,-79.84,4.873,4.481,-2.103
1733510160610,-0.122,-0.142,0.859,-5.342,-79.84,4.873,3.436,-2.103
1733510160610,-0.122,-0.142,0.859,-5.342,-79.84,4.873,3.436,-2.347
1733510160615,-0.128,-0.142,0.859,-5.342,-79.84,4.873,3.436,-2.347
1733510160615,-0.128,0.062,0.859,-5.342,-79.84,4.873,3.436,-2.347
1733510160616,-0.128,0.062,0.872,-5.342,-79.84,4.873,3.436,-2.347
1733510160616,-0.128,0.062,0.872,-6.148,-79.84,4.873,3.436,-2.347
1733510160616,-0.128,0.062,0.872,-6.148,-87.798,4.873,3.436,-2.347
1733510160616,-0.128,0.062,0.872,-6.148,-87.798,31.378,3.436,-2.347
1733510160635,-0.128,0.062,0.872,-6.148,-87.798,31.378,1.933,-2.347
1733510160636,-0.128,0.062,0.872,-6.148,-87.798,31.378,1.933,-1.848
1733510160639,-0.031,0.062,0.872,-6.148,-87.798,31.378,1.933,-1.848
1733510160640,-0.031,-0.075,0.872,-6.148,-87.798,31.378,1.933,-1.848
1733510160640,-0.031,-0.075,0.833,-6.148,-87.798,31.378,1.933,-1.848
1733510160644,-0.031,-0.075,0.833,-5.665,-87.798,31.378,1.933,-1.848
1733510160645,-0.031,-0.075,0.833,-5.665,-101.151,31.378,1.933,-1.848
1733510160645,-0.031,-0.075,0.833,-5.665,-101.151,2.886,1.933,-1.848
1733510160658,-0.031,-0.075,0.833,-5.665,-101.151,2.886,-0.116,-1.848
1733510160659,-0.031,-0.075,0.833,-5.665,-101.151,2.886,-0.116,-2.126
1733510160661,-0.065,-0.075,0.833,-5.665,-101.151,2.886,-0.116,-2.126
1733510160662,-0.065,-0.046,0.833,-5.665,-101.151,2.886,-0.116,-2.126
1733510160663,-0.065,-0.046,0.888,-5.665,-101.151,2.886,-0.116,-2.126
1733510160664,-0.065,-0.046,0.888,-5.162,-101.151,2.886,-0.116,-2.126
1733510160664,-0.065,-0.046,0.888,-5.162,-110.281,2.886,-0.116,-2.126
1733510160664,-0.065,-0.046,0.888,-5.162,-110.281,2.139,-0.116,-2.126
1733510160685,-0.065,-0.046,0.888,-5.162,-110.281,2.139,-1.689,-2.126
1733510160686,-0.065,-0.046,0.888,-5.162,-110.281,2.139,-1.689,-2.397
1733510160689,-0.045,-0.046,0.888,-5.162,-110.281,2.139,-1.689,-2.397
1733510160689,-0.045,-0.037,0.888,-5.162,-110.281,2.139,-1.689,-2.397
1733510160690,-0.045,-0.037,0.901,-5.162,-110.281,2.139,-1.689,-2.397
1733510160690,-0.045,-0.037,0.901,-5.406,-110.281,2.139,-1.689,-2.397
1733510160691,-0.045,-0.037,0.901,-5.406,-112.907,2.139,-1.689,-2.397
1733510160691,-0.045,-0.037,0.901,-5.406,-112.907,20.81,-1.689,-2.397
1733510160709,-0.045,-0.037,0.901,-5.406,-112.907,20.81,-3.303,-2.397
1733510160710,-0.045,-0.037,0.901,-5.406,-112.907,20.81,-3.303,-1.917
1733510160712,0.102,-0.037,0.901,-5.406,-112.907,20.81,-3.303,-1.917
1733510160712,0.102,0.058,0.901,-5.406,-112.907,20.81,-3.303,-1.917
1733510160712,0.102,0.058,0.886,-5.406,-112.907,20.81,-3.303,-1.917
1733510160715,0.102,0.058,0.886,-6.902,-112.907,20.81,-3.303,-1.917
1733510160715,0.102,0.058,0.886,-6.902,-108.555,20.81,-3.303,-1.917
1733510160716,0.102,0.058,0.886,-6.902,-108.555,9.909,-3.303,-1.917
1733510160736,0.102,0.058,0.886,-6.902,-108.555,9.909,-5.549,-1.917
1733510160737,0.102,0.058,0.886,-6.902,-108.555,9.909,-5.549,-2.162
1733510160737,0.048,0.058,0.886,-6.902,-108.555,9.909,-5.549,-2.162
1733510160738,0.048,-0.097,0.886,-6.902,-108.555,9.909,-5.549,-2.162
1733510160739,0.048,-0.097,0.843,-6.902,-108.555,9.909,-5.549,-2.162
1733510160740,0.048,-0.097,0.843,-6.368,-108.555,9.909,-5.549,-2.162
1733510160740,0.048,-0.097,0.843,-6.368,-121.304,9.909,-5.549,-2.162
1733510160740,0.048,-0.097,0.843,-6.368,-121.304,-15.144,-5.549,-2.162
1733510160763,0.048,-0.097,0.843,-6.368,-121.304,-15.144,-7.496,-2.162
1733510160764,0.048,-0.097,0.843,-6.368,-121.304,-15.144,-7.496,-2.416
1733510160764,0.082,-0.097,0.843,-6.368,-121.304,-15.144,-7.496,-2.416
1733510160765,0.082,-0.013,0.843,-6.368,-121.304,-15.144,-7.496,-2.416
1733510160765,0.082,-0.013,0.913,-6.368,-121.304,-15.144,-7.496,-2.416
1733510160765,0.082,-0.013,0.913,-3.314,-121.304,-15.144,-7.496,-2.416
1733510160765,0.082,-0.013,0.913,-3.314,-122.204,-15.144,-7.496,-2.416
1733510160766,0.082,-0.013,0.913,-3.314,-122.204,4.016,-7.496,-2.416
1733510160783,0.082,-0.013,0.913,-3.314,-122.204,4.016,-9.632,-2.416
1733510160784,0.082,-0.013,0.913,-3.314,-122.204,4.016,-9.632,-2.384
1733510160788,0.138,-0.013,0.913,-3.314,-122.204,4.016,-9.632,-2.384
1733510160788,0.138,0.031,0.913,-3.314,-122.204,4.016,-9.632,-2.384
1733510160789,0.138,0.031,0.867,-3.314,-122.204,4.016,-9.632,-2.384
1733510160790,0.138,0.031,0.867,-6.917,-122.204,4.016,-9.632,-2.384
1733510160790,0.138,0.031,0.867,-6.917,-118.876,4.016,-9.632,-2.384
1733510160790,0.138,0.031,0.867,-6.917,-118.876,-10.349,-9.632,-2.384
1733510160808,0.138,0.031,0.867,-6.917,-118.876,-10.349,-11.731,-2.384
1733510160809,0.138,0.031,0.867,-6.917,-118.876,-10.349,-11.731,-2.525
1733510160817,0.141,0.031,0.867,-6.917,-118.876,-10.349,-11.731,-2.525
1733510160817,0.141,-0.07,0.867,-6.917,-118.876,-10.349,-11.731,-2.525
1733510160817,0.141,-0.07,0.847,-6.917,-118.876,-10.349,-11.731,-2.525
1733510160817,0.141,-0.07,0.847,-7.207,-118.876,-10.349,-11.731,-2.525
1733510160818,0.141,-0.07,0.847,-7.207,-129.44,-10.349,-11.731,-2.525
1733510160818,0.141,-0.07,0.847,-7.207,-129.44,-7.404,-11.731,-2.525
1733510160838,0.141,-0.07,0.847,-7.207,-129.44,-7.404,-13.862,-2.525
1733510160838,0.141,-0.07,0.847,-7.207,-129.44,-7.404,-13.862,-2.663
1733510160853,0.142,-0.07,0.847,-7.207,-129.44,-7.404,-13.862,-2.663
1733510160853,0.142,-0.042,0.847,-7.207,-129.44,-7.404,-13.862,-2.663
1733510160853,0.142,-0.042,0.838,-7.207,-129.44,-7.404,-13.862,-2.663
1733510160854,0.142,-0.042,0.838,-5.864,-129.44,-7.404,-13.862,-2.663
1733510160854,0.142,-0.042,0.838,-5.864,-128.128,-7.404,-13.862,-2.663
1733510160855,0.142,-0.042,0.838,-5.864,-128.128,-2.136,-13.862,-2.663
1733510160859,0.142,-0.042,0.838,-5.864,-128.128,-2.136,-15.971,-2.663
1733510160859,0.142,-0.042,0.838,-5.864,-128.128,-2.136,-15.971,-2.697
1733510160863,0.227,-0.042,0.838,-5.864,-128.128,-2.136,-15.971,-2.697
1733510160863,0.227,-0.026,0.838,-5.864,-128.128,-2.136,-15.971,-2.697
1733510160863,0.227,-0.026,0.842,-5.864,-128.128,-2.136,-15.971,-2.697
1733510160864,0.227,-0.026,0.842,-6.871,-128.128,-2.136,-15.971,-2.697
1733510160864,0.227,-0.026,0.842,-6.871,-139.899,-2.136,-15.971,-2.697
1733510160864,0.227,-0.026,0.842,-6.871,-139.899,-3.312,-15.971,-2.697
1733510160884,0.227,-0.026,0.842,-6.871,-139.899,-3.312,-18.543,-2.697
1733510160884,0.227,-0.026,0.842,-6.871,-139.899,-3.312,-18.543,-2.841
1733510160887,0.264,-0.026,0.842,-6.871,-139.899,-3.312,-18.543,-2.841
1733510160888,0.264,-0.047,0.842,-6.871,-139.899,-3.312,-18.543,-2.841
1733510160888,0.264,-0.047,0.884,-6.871,-139.899,-3.312,-18.543,-2.841
